timestamp,timestamp_sample,ref_timestamp,ref_lat,ref_lon,x,y,z,delta_xy[0],delta_xy[1],delta_z,vx,vy,vz,z_deriv,delta_vxy[0],delta_vxy[1],delta_vz,ax,ay,az,heading,delta_heading,ref_alt,dist_bottom,eph,epv,evh,evv,vxy_max,vz_max,hagl_min,hagl_max,xy_valid,z_valid,v_xy_valid,v_z_valid,xy_reset_counter,z_reset_counter,vxy_reset_counter,vz_reset_counter,heading_reset_counter,heading_good_for_control,xy_global,z_global,dist_bottom_valid,dist_bottom_sensor_bitfield
21726780000,21726780000,1036000,41.606704,-86.3556021,-0.6674511,-1.155032,0.13118653,0.0004925808,0.000107556276,0.0,-0.004480365,-0.0045658294,-0.001745668,-0.002079707,-0.00020542361,-0.0023216454,0.0030729105,0.0074236416,-0.0018136203,-0.032718353,-1.0712483,0.065375656,229.40294,0.100261524,0.049093317,0.055375353,0.013493774,0.009664897,inf,inf,inf,inf,1,1,1,1,2,0,2,1,47,0,1,1,1,0
21727276000,21727276000,1036000,41.606704,-86.3556021,-0.66647285,-1.1552237,0.13125986,0.0004925808,0.000107556276,0.0,-0.0033051965,-0.0014866306,-0.0022377581,-0.0021467956,-0.00020542361,-0.0023216454,0.0030729105,-0.02357387,0.021861969,-0.08272106,-1.0711389,0.065375656,229.40294,0.10022834,0.049063448,0.05533987,0.018939154,0.0137046315,inf,inf,inf,inf,1,1,1,1,2,0,2,1,47,0,1,1,1,0
21727780000,21727780000,1036000,41.606704,-86.3556021,-0.6662148,-1.1552547,0.13172416,0.0004925808,0.000107556276,0.0,-0.0029775926,-0.002806395,-0.00036527525,1.21843495e-05,-0.00020542361,-0.0023216454,0.0030729105,-0.021767413,-0.03958339,0.025913985,-1.0709889,0.065375656,229.40294,0.10003604,0.04905083,0.055291206,0.009917673,0.0070644,inf,inf,inf,inf,1,1,1,1,2,0,2,1,47,0,1,1,1,0
21728276000,21728276000,1036000,41.606704,-86.3556021,-0.66584104,-1.154335,0.13191906,0.0004925808,0.000107556276,0.0,-0.0021248246,-0.0016860041,-0.00034518164,-9.547198e-05,-0.00020542361,-0.0023216454,0.0030729105,-0.05679244,-0.037507404,0.01781241,-1.0709955,0.065375656,229.40294,0.1,0.049006984,0.055249304,0.016397268,0.011806083,inf,inf,inf,inf,1,1,1,1,2,0,2,1,47,0,1,1,1,0
21728780000,21728780000,1036000,41.606704,-86.3556021,-0.6663436,-1.1550006,0.13189684,0.0004925808,0.000107556276,0.0,-0.0056669638,-0.004236938,9.554322e-05,0.00021563438,-0.00020542361,-0.0023216454,0.0030729105,-0.048150152,0.020254953,0.21042202,-1.0709761,0.065375656,229.40294,0.1,0.04898221,0.055202123,0.004213637,0.002983452,inf,inf,inf,inf,1,1,1,1,2,0,2,1,47,0,1,1,1,0
21729276000,21729276000,1036000,41.606704,-86.3556021,-0.6660034,-1.154783,0.13266,0.0004925808,0.000107556276,0.0,-0.00034333777,-0.0027126435,0.0016483689,0.0014903584,-0.00020542361,-0.0023216454,0.0030729105,0.040543318,-0.029741302,0.025235051,-1.0711743,0.065375656,229.40294,0.1,0.04895952,0.055163383,0.013494885,0.009664813,inf,inf,inf,inf,1,1,1,1,2,0,2,1,47,0,1,1,1,0
21729780000,21729780000,1036000,41.606704,-86.3556021,-0.6657486,-1.1549581,0.13204414,0.0004925808,0.000107556276,0.0,-0.0004236844,-0.005168216,-0.0010839098,-0.0015732744,-0.00020542361,-0.0023216454,0.0030729105,0.030298473,-0.032977153,0.20614167,-1.0713017,0.065375656,229.40294,0.1,0.048964728,0.055137865,0.019429533,0.014068293,inf,inf,inf,inf,1,1,1,1,2,0,2,1,47,0,1,1,1,0
21730276000,21730276000,1036000,41.606704,-86.3556021,-0.66489875,-1.1552373,0.13051298,0.0004925808,0.000107556276,0.0,0.0021289496,-0.0023303297,-0.00053441006,-0.00022352404,-0.00020542361,-0.0023216454,0.0030729105,-0.011945996,0.04309095,0.23366317,-1.0713419,0.065375656,229.40294,0.10084465,0.048918113,0.055080686,0.009918454,0.007064395,inf,inf,inf,inf,1,1,1,1,2,0,2,1,47,0,1,1,1,0
21730780000,21730780000,1036000,41.606704,-86.3556021,-0.66439414,-1.153123,0.13054465,0.0004925808,0.000107556276,0.0,0.0029758303,0.00031488674,-0.0006416951,-0.0002856105,-0.00020542361,-0.0023216454,0.0030729105,-0.032502305,-0.096438125,-0.20547496,-1.070932,0.065375656,229.40294,0.100309,0.048907053,0.055047687,0.016935484,0.0122030815,inf,inf,inf,inf,1,1,1,1,2,0,2,1,47,0,1,1,1,0
21731276000,21731276000,1036000,41.606704,-86.3556021,-0.6641606,-1.1539837,0.13130143,0.0004925808,0.000107556276,0.0,0.0054860897,-0.0019569334,0.0012985246,0.0015471991,-0.00020542361,-0.0023216454,0.0030729105,0.08899915,-0.07857345,-0.06935193,-1.0709274,0.065375656,229.40294,0.1,0.04885075,0.05499992,0.0042134426,0.0029834523,inf,inf,inf,inf,1,1,1,1,2,0,2,1,47,0,1,1,1,0
21731780000,21731780000,1036000,41.606704,-86.3556021,-0.6648861,-1.1542847,0.13092607,0.0004925808,0.000107556276,0.0,0.00066796184,0.00043455407,-0.0023104912,-0.0025018682,-0.00020542361,-0.0023216454,0.0030729105,0.053885188,-0.060561653,0.17542106,-1.0712283,0.065375656,229.40294,0.1,0.048859034,0.05495569,0.014114625,0.010119833,inf,inf,inf,inf,1,1,1,1,2,0,2,1,47,0,1,1,1,0
21732276000,21732276000,1036000,41.606704,-86.3556021,-0.6657153,-1.1523689,0.13173418,0.0004925808,0.000107556276,0.0,0.00058701076,0.0053371363,0.007146262,0.007094939,-0.00020542361,-0.0023216454,0.0030729105,-0.052246884,0.026731243,-0.07068372,-1.071589,0.065375656,229.40294,0.1,0.04883434,0.05493028,0.019418318,0.014065163,inf,inf,inf,inf,1,1,1,1,2,0,2,1,47,0,1,1,1,0
21732780000,21732780000,1036000,41.606704,-86.3556021,-0.6669743,-1.1518695,0.13316487,0.0004925808,0.000107556276,0.0,-0.0042213947,0.005660004,0.007817754,0.0059017646,-0.00020542361,-0.0023216454,0.0030729105,-0.06556038,0.02364292,-0.013748245,-1.0709289,0.065375656,229.40294,0.1,0.04878862,0.054874014,0.010717489,0.0076424247,inf,inf,inf,inf,1,1,1,1,2,0,2,1,47,0,1,1,1,0
21733276000,21733276000,1036000,41.606704,-86.3556021,-0.66641814,-1.1519731,0.13287106,0.0004925808,0.000107556276,0.0,0.00052180834,0.0041204644,0.005977136,0.0033063476,-0.00020542361,-0.0023216454,0.0030729105,0.024610767,-0.04542577,-0.044590853,-1.0705106,0.065375656,229.40294,0.1,0.049040005,0.054968823,0.02815882,0.020744853,inf,inf,inf,inf,1,1,1,1,2,0,2,1,47,0,1,1,1,0
21733780000,21733780000,1036000,41.606704,-86.3556021,-0.6662711,-1.1495026,0.13652219,0.0004925808,0.000107556276,0.0,0.0007410576,0.009809331,0.014460465,0.012856222,-0.00020542361,-0.0023216454,0.0030729105,0.028275765,0.079990976,-0.013371061,-1.0694491,0.065375656,229.40294,0.1,0.053699344,0.057380922,0.049141373,0.03720632,inf,inf,inf,inf,1,1,1,1,2,0,2,1,47,0,1,1,1,0
21734276000,21734276000,1036000,41.606704,-86.3556021,-0.6732627,-1.1427846,0.09510073,0.0004925808,0.000107556276,0.0,-0.031281408,0.01808695,-0.41223633,-0.41307783,-0.00020542361,-0.0023216454,0.0030729105,-0.027425794,0.027479751,-2.1493042,-1.0711462,0.065375656,229.40294,0.14459372,0.06852722,0.066123344,0.0684636,0.051718917,inf,inf,inf,inf,1,1,1,1,2,0,2,1,47,0,1,1,1,0
21734780000,21734780000,1036000,41.606704,-86.3556021,-0.6889131,-1.1366366,-0.36995044,0.0004925808,0.000107556276,0.0,-0.019164288,0.0030930033,-1.4286867,-1.4278203,-0.00020542361,-0.0023216454,0.0030729105,0.054139283,-0.042458538,-2.123354,-1.0709411,0.065375656,229.40294,0.6096449,0.09555964,0.08391847,0.089176506,0.06530911,inf,inf,inf,inf,1,1,1,1,2,0,2,1,47,0,1,1,1,0
21735276000,21735276000,1036000,41.606704,-86.3556021,-0.69257426,-1.140146,-1.0811229,0.0004925808,0.000107556276,0.0,-0.0014172228,-0.012715237,-1.1873512,-1.1857247,-0.00020542361,-0.0023216454,0.0030729105,0.04419215,0.01762682,0.6967028,-1.0704992,0.065375656,229.40294,1.3208174,0.12783696,0.108490154,0.101515986,0.07653693,inf,inf,inf,inf,1,1,1,1,2,0,2,1,47,0,1,1,1,0
21735780000,21735780000,1036000,41.606704,-86.3556021,-0.6888261,-1.1483436,-1.549159,0.0004925808,0.000107556276,0.0,0.0036213503,-0.011596397,-0.70309865,-0.7050731,-0.00020542361,-0.0023216454,0.0030729105,0.03801624,0.057075456,0.8113225,-1.0033525,0.079677045,229.40294,1.7888535,0.17031588,0.1413667,0.111465484,0.08871554,inf,inf,inf,inf,1,1,1,1,2,0,2,1,48,0,1,1,1,0
21736276000,21736276000,1036000,41.606704,-86.3556021,-0.6813612,-1.1572845,-1.8342582,0.0004925808,0.000107556276,0.0,0.0019883772,-0.008980012,-0.4241714,-0.43384585,-0.00020542361,-0.0023216454,0.0030729105,-0.04519783,-0.043482263,0.49137875,-1.0246195,0.079677045,229.40294,2.0739527,0.19879359,0.17278339,0.114210516,0.09577696,inf,inf,inf,inf,1,1,1,1,2,0,2,1,48,0,1,1,1,0
21736780000,21736780000,1036000,41.606704,-86.3556021,-0.6717516,-1.1598059,-2.012839,0.0004925808,0.000107556276,0.0,0.00072806235,-0.0027810188,-0.25994015,-0.27393755,-0.00020542361,-0.0023216454,0.0030729105,0.0109487185,0.0577529,0.24689634,-1.0352902,0.079677045,229.40294,2.2525334,0.23057792,0.20776653,0.12978867,0.10308995,inf,inf,inf,inf,1,1,1,1,2,0,2,1,48,1,1,1,1,0
21737276000,21737276000,1036000,41.606704,-86.3556021,-0.6701419,-1.160368,-2.1249425,0.0004925808,0.000107556276,0.0,-0.009516677,-0.0021049038,-0.16004704,-0.17649187,-0.00020542361,-0.0023216454,0.0030729105,-0.0072207423,0.024419839,0.13650948,-1.0408627,0.079677045,229.40294,2.364637,0.25816834,0.24111849,0.14394899,0.108303085,inf,inf,inf,inf,1,1,1,1,2,0,2,1,48,1,1,1,1,0
21737780000,21737780000,1036000,41.606704,-86.3556021,-0.6676386,-1.161205,-2.1263955,0.0004925808,0.000107556276,0.0,-0.0061578513,-0.004111499,0.08606395,0.07190939,-0.00020542361,-0.0023216454,0.0030729105,-0.079976656,0.03726086,-0.3214069,-1.0456376,0.079677045,229.40294,2.3660898,0.28425166,0.27262914,0.15550494,0.112125844,inf,inf,inf,inf,1,1,1,1,2,0,2,1,48,1,1,1,1,0
21738276000,21738276000,1036000,41.606704,-86.3556021,-0.6673659,-1.1448135,-2.1350229,0.0004925808,0.000107556276,0.0,-0.0084502045,0.08269865,-0.1418762,-0.15505792,-0.00020542361,-0.0023216454,0.0030729105,0.21248591,0.49684134,-0.33320212,-1.0513296,0.079677045,229.40294,2.3747172,0.30595055,0.30091313,0.16300932,0.11460857,inf,inf,inf,inf,1,1,1,1,2,0,2,1,48,1,1,1,0,0
21738780000,21738780000,1036000,41.606704,-86.3556021,-0.6679905,-1.0050049,-2.2861645,0.0004925808,0.000107556276,0.0,-0.009324498,0.53869164,-0.4429709,-0.45150274,-0.00020542361,-0.0023216454,0.0030729105,0.03434837,1.381703,-0.46183637,-1.0505297,0.079677045,229.40294,2.5258589,0.32496372,0.32517976,0.16762698,0.11579596,inf,inf,inf,inf,1,1,1,1,2,0,2,1,48,1,1,1,0,0
21739276000,21739276000,1036000,41.606704,-86.3556021,-0.66241497,-0.5510186,-2.5733871,0.0004925808,0.000107556276,0.0,-0.1220795,1.3477108,-0.7600344,-0.77539855,-0.00020542361,-0.0023216454,0.0030729105,-0.6329317,2.0664918,-2.267177,-1.0466299,0.079677045,229.40294,2.8130815,0.3215845,0.33809313,0.15787664,0.11291975,inf,inf,inf,inf,1,1,1,1,2,0,2,1,48,1,1,1,0,0
21739780000,21739780000,1036000,41.606704,-86.3556021,-0.9285644,0.38558906,-3.182005,0.0004925808,0.000107556276,0.0,-1.0505916,2.310222,-1.6066682,-1.6164048,-0.00020542361,-0.0023216454,0.0030729105,-1.4599198,1.4031816,-1.6131914,-1.0510051,0.079677045,229.40294,3.4216993,0.3549463,0.36371243,0.18157196,0.11644251,inf,inf,inf,inf,1,1,1,1,2,0,2,1,48,1,1,1,0,0
21740276000,21740276000,1036000,41.606704,-86.3556021,-1.5103403,1.6949046,-4.1551895,0.0004925808,0.000107556276,0.0,-1.4917161,2.8537526,-2.3657513,-2.3590953,-0.00020542361,-0.0023216454,0.0030729105,-0.86490726,0.75868815,-1.648767,-1.053878,0.079677045,229.40294,4.394884,0.34271765,0.36983907,0.1647029,0.112725094,inf,inf,inf,inf,1,1,1,1,2,0,2,1,48,1,1,1,0,0
21740780000,21740780000,1036000,41.606704,-86.3556021,-2.2924008,3.2655778,-5.5086613,0.0004925808,0.000107556276,0.0,-1.7324063,3.233366,-3.0240276,-3.012986,-0.00020542361,-0.0023216454,0.0030729105,-0.4132781,0.25394508,-0.4075943,-1.05257,0.079677045,229.40294,5.748356,0.37521198,0.38951978,0.17653415,0.1162451,inf,inf,inf,inf,1,1,1,1,2,0,2,1,48,1,1,1,0,0
21741276000,21741276000,1036000,41.606704,-86.3556021,-3.1821144,4.991293,-7.1289363,0.0004925808,0.000107556276,0.0,-1.9096931,3.543191,-3.5439894,-3.5274405,-0.00020542361,-0.0023216454,0.0030729105,-0.36728376,0.5647906,-0.8545639,-1.0522393,0.079677045,229.40294,7.368631,0.35710523,0.39102867,0.1556897,0.112633355,inf,inf,inf,inf,1,1,1,1,2,0,2,1,48,1,1,1,0,0
21741780000,21741780000,1036000,41.606704,-86.3556021,-4.1819215,6.882483,-9.015493,0.0004925808,0.000107556276,0.0,-2.0682163,3.8037975,-3.9613242,-3.945519,-0.00020542361,-0.0023216454,0.0030729105,-0.23776914,0.37703493,-0.6858921,-1.0510267,0.079677045,229.40294,9.255188,0.3638039,0.39772016,0.15298118,0.11283593,inf,inf,inf,inf,1,1,1,1,2,0,2,1,48,1,1,1,0,0
21742276000,21742276000,1036000,41.606704,-86.3556021,-5.2434745,8.845532,-11.069779,0.0004925808,0.000107556276,0.0,-2.1949298,4.0146055,-4.294017,-4.28923,-0.00020542361,-0.0023216454,0.0030729105,-0.30323008,0.30804282,-0.6651031,-1.0499451,0.079677045,229.40294,11.309474,0.36825022,0.40471414,0.1501947,0.113418266,inf,inf,inf,inf,1,1,1,1,2,0,2,1,48,1,1,1,0,0
21742780000,21742780000,1036000,41.606704,-86.3556021,-6.3891654,10.942612,-13.312465,0.0004925808,0.000107556276,0.0,-2.3182306,4.193206,-4.565779,-4.570114,-0.00020542361,-0.0023216454,0.0030729105,-0.17090005,0.31467175,-0.48110172,-1.0495067,0.079677045,229.40294,13.552159,0.37253073,0.40839687,0.14873828,0.113846846,inf,inf,inf,inf,1,1,1,1,2,0,2,1,48,1,1,1,0,0
21743276000,21743276000,1036000,41.606704,-86.3556021,-7.5646634,13.080812,-15.643106,0.0004925808,0.000107556276,0.0,-2.4078825,4.3420825,-4.7767687,-4.7885756,-0.00020542361,-0.0023216454,0.0030729105,-0.1452934,0.23034994,-0.5137902,-1.0493205,0.079677045,229.40294,15.882801,0.37641126,0.41332006,0.14867339,0.11481737,inf,inf,inf,inf,1,1,1,1,2,0,2,1,48,1,1,1,0,0
21743780000,21743780000,1036000,41.606704,-86.3556021,-8.799412,15.323526,-18.104837,0.0004925808,0.000107556276,0.0,-2.4810305,4.466146,-4.9468007,-4.9589767,-0.00020542361,-0.0023216454,0.0030729105,-0.23227917,0.2978411,-0.4007295,-1.0493383,0.079677045,229.40294,18.344532,0.37883407,0.4151031,0.1482076,0.11529674,inf,inf,inf,inf,1,1,1,1,2,0,2,1,48,1,1,1,0,0
21744276000,21744276000,1036000,41.606704,-86.3556021,-10.055077,17.589214,-20.60702,0.0004925808,0.000107556276,0.0,-2.5367684,4.578286,-5.0860653,-5.1037946,-0.00020542361,-0.0023216454,0.0030729105,-0.06858486,0.23887974,-0.2208809,-1.0492562,0.079677045,229.40294,20.846714,0.3607513,0.40940914,0.13926241,0.11224485,inf,inf,inf,inf,1,1,1,1,2,0,2,1,48,1,1,1,0,0
21744780000,21744780000,1036000,41.606704,-86.3556021,-11.35933,19.94412,-23.214888,0.0004925808,0.000107556276,0.0,-2.5931778,4.675524,-5.199106,-5.220197,-0.00020542361,-0.0023216454,0.0030729105,-0.07047441,0.13477153,-0.14939258,-1.049504,0.079677045,229.40294,23.454582,0.38547426,0.4198687,0.15165831,0.1171819,inf,inf,inf,inf,1,1,1,1,2,0,2,1,48,1,1,1,0,0
21745276000,21745276000,1036000,41.606704,-86.3556021,-12.674919,22.304276,-25.824896,0.0004925808,0.000107556276,0.0,-2.6407151,4.758114,-5.28547,-5.305059,-0.00020542361,-0.0023216454,0.0030729105,-0.042420626,0.16419385,-0.17389753,-1.0495825,0.079677045,229.40294,26.06459,0.36551753,0.41330725,0.14199947,0.11374678,inf,inf,inf,inf,1,1,1,1,2,0,2,1,48,1,1,1,0,0
21745780000,21745780000,1036000,41.606704,-86.3556021,-14.036554,24.73564,-28.51399,0.0004925808,0.000107556276,0.0,-2.6878173,4.825804,-5.3612657,-5.376194,-0.00020542361,-0.0023216454,0.0030729105,-0.058732033,0.12229005,-0.14576134,-1.0500166,0.079677045,229.40294,28.753685,0.36879346,0.41661388,0.14426792,0.11480908,inf,inf,inf,inf,1,1,1,1,2,0,2,1,48,1,1,1,0,0
21746276000,21746276000,1036000,41.606704,-86.3556021,-15.395491,27.160583,-31.184254,0.0004925808,0.000107556276,0.0,-2.7265835,4.8810716,-5.4135036,-5.4206605,-0.00020542361,-0.0023216454,0.0030729105,-0.03895622,0.12550724,-0.25031534,-1.0498908,0.079677045,229.40294,31.423948,0.36987776,0.415936,0.14461362,0.11490981,inf,inf,inf,inf,1,1,1,1,2,0,2,1,48,1,1,1,0,0
21746780000,21746780000,1036000,41.606704,-86.3556021,-16.800396,29.658081,-33.931797,0.0004925808,0.000107556276,0.0,-2.758621,4.9314775,-5.46455,-5.4731536,-0.00020542361,-0.0023216454,0.0030729105,3.612072e-06,0.13074923,-0.18792976,-1.049448,0.079677045,229.40294,34.17149,0.37265676,0.41876152,0.14636582,0.11567349,inf,inf,inf,inf,1,1,1,1,2,0,2,1,48,1,1,1,0,0
21747276000,21747276000,1036000,41.606704,-86.3556021,-18.196796,32.142815,-36.663834,0.0004925808,0.000107556276,0.0,-2.7825255,4.983502,-5.5172563,-5.529468,-0.00020542361,-0.0023216454,0.0030729105,-0.20121443,0.26238117,-0.64886737,-1.0496045,0.079677045,229.40294,36.903526,0.37569144,0.41802624,0.148506,0.11600408,inf,inf,inf,inf,1,1,1,1,2,0,2,1,48,1,1,1,0,0
21747780000,21747780000,1036000,41.606704,-86.3556021,-19.626715,34.689507,-39.457558,0.0004925808,0.000107556276,0.0,-2.8061483,5.023834,-5.552177,-5.5606723,-0.00020542361,-0.0023216454,0.0030729105,-0.0653386,0.0921043,-0.047908224,-1.0490832,0.079677045,229.40294,39.69725,0.37775758,0.41765285,0.14920685,0.11609546,inf,inf,inf,inf,1,1,1,1,2,0,2,1,48,1,1,1,0,0
21748276000,21748276000,1036000,41.606704,-86.3556021,-21.052496,37.209003,-42.22179,0.0004925808,0.000107556276,0.0,-2.8245864,5.0550027,-5.5901732,-5.595663,-0.00020542361,-0.0023216454,0.0030729105,0.014118187,0.009254572,-0.1181523,-1.0499104,0.079677045,229.40294,42.461483,0.3599824,0.4140152,0.14048235,0.11283407,inf,inf,inf,inf,1,1,1,1,2,0,2,1,48,1,1,1,0,0
21748780000,21748780000,1036000,41.606704,-86.3556021,-22.506289,39.777603,-45.03478,0.0004925808,0.000107556276,0.0,-2.8438714,5.079847,-5.613715,-5.608254,-0.00020542361,-0.0023216454,0.0030729105,-0.027094575,0.05008802,-0.00647648,-1.0496776,0.079677045,229.40294,45.27447,0.38294035,0.41943678,0.15167165,0.116591424,inf,inf,inf,inf,1,1,1,1,2,0,2,1,48,1,1,1,0,0
21749276000,21749276000,1036000,41.606704,-86.3556021,-23.95466,42.32824,-47.808025,0.0004925808,0.000107556276,0.0,-2.8647254,5.1057177,-5.6360974,-5.6207013,-0.00020542361,-0.0023216454,0.0030729105,-0.035402406,0.019761989,-0.07908704,-1.0492115,0.079677045,229.40294,48.047718,0.36373258,0.41544214,0.14192694,0.11303949,inf,inf,inf,inf,1,1,1,1,2,0,2,1,48,1,1,1,0,0
21749780000,21749780000,1036000,41.606704,-86.3556021,-25.428802,44.939632,-50.63391,0.0004925808,0.000107556276,0.0,-2.8772483,5.132859,-5.647464,-5.624847,-0.00020542361,-0.0023216454,0.0030729105,-0.1237438,0.0026523867,-0.186801,-1.0490984,0.079677045,229.40294,50.873604,0.36730903,0.4151069,0.1440558,0.11325745,inf,inf,inf,inf,1,1,1,1,2,0,2,1,48,1,1,1,0,0
21750276000,21750276000,1036000,41.606704,-86.3556021,-26.880455,47.508717,-53.429943,0.0004925808,0.000107556276,0.0,-2.89209,5.156407,-5.663124,-5.642326,-0.00020542361,-0.0023216454,0.0030729105,0.28879234,0.06633053,0.22810598,-1.0490127,0.079677045,229.40294,53.669636,0.3685792,0.41692233,0.14409865,0.11328882,inf,inf,inf,inf,1,1,1,1,2,0,2,1,48,1,1,1,0,0
21750780000,21750780000,1036000,41.606704,-86.3556021,-28.366547,50.13254,-56.262375,0.0004925808,0.000107556276,0.0,-2.9045777,5.1804285,-5.662883,-5.634512,-0.00020542361,-0.0023216454,0.0030729105,-0.013014657,0.13400963,0.061176647,-1.0489998,0.079677045,229.40294,56.502068,0.37154892,0.41643247,0.14549233,0.11328992,inf,inf,inf,inf,1,1,1,1,2,0,2,1,48,1,1,1,0,0
21751276000,21751276000,1036000,41.606704,-86.3556021,-29.825994,52.72084,-59.064186,0.0004925808,0.000107556276,0.0,-2.9150875,5.1973333,-5.6643004,-5.6420155,-0.00020542361,-0.0023216454,0.0030729105,-0.019541634,0.059801165,0.0332733,-1.0495617,0.079677045,229.40294,59.30388,0.37346748,0.41820776,0.14608797,0.113374025,inf,inf,inf,inf,1,1,1,1,2,0,2,1,48,1,1,1,0,0
21751780000,21751780000,1036000,41.606704,-86.3556021,-31.31513,55.355476,-61.90959,0.0004925808,0.000107556276,0.0,-2.924968,5.210447,-5.665415,-5.6453424,-0.00020542361,-0.0023216454,0.0030729105,-0.043707717,0.013493489,-0.080716856,-1.0494919,0.079677045,229.40294,62.149284,0.37588623,0.41744798,0.14693089,0.11318844,inf,inf,inf,inf,1,1,1,1,2,0,2,1,48,1,1,1,0,0
21752276000,21752276000,1036000,41.606704,-86.3556021,-32.785275,57.955223,-64.71618,0.0004925808,0.000107556276,0.0,-2.940175,5.221585,-5.6670284,-5.652974,-0.00020542361,-0.0023216454,0.0030729105,-0.05396607,-0.0032617166,-0.042942412,-1.0491807,0.079677045,229.40294,64.95587,0.35864913,0.41363755,0.13862805,0.10995708,inf,inf,inf,inf,1,1,1,1,2,0,2,1,48,1,1,1,0,0
21752780000,21752780000,1036000,41.606704,-86.3556021,-34.278984,60.599213,-67.56858,0.0004925808,0.000107556276,0.0,-2.9520628,5.231404,-5.664179,-5.652914,-0.00020542361,-0.0023216454,0.0030729105,-0.088364825,-0.01180027,-0.024749028,-1.0489926,0.079677045,229.40294,67.80827,0.38159594,0.42127803,0.14952618,0.113578685,inf,inf,inf,inf,1,1,1,1,2,0,2,1,48,1,1,1,0,0
21753276000,21753276000,1036000,41.606704,-86.3556021,-35.74638,63.206676,-70.37894,0.0004925808,0.000107556276,0.0,-2.964675,5.24082,-5.6614556,-5.657056,-0.00020542361,-0.0023216454,0.0030729105,0.05483146,-0.4573371,0.7282448,-1.0492098,0.079677045,229.40294,70.61863,0.3626655,0.4142392,0.14008276,0.10986456,inf,inf,inf,inf,1,1,1,1,2,0,2,1,48,1,1,1,0,0
21753780000,21753780000,1036000,41.606704,-86.3556021,-37.237793,65.85355,-73.24248,0.0004925808,0.000107556276,0.0,-2.9702692,5.2493496,-5.6572127,-5.662455,-0.00020542361,-0.0023216454,0.0030729105,-0.030508589,0.07621119,0.065172024,-1.0489948,0.079677045,229.40294,73.48217,0.38725403,0.4219991,0.1519672,0.11359733,inf,inf,inf,inf,1,1,1,1,2,0,2,1,48,1,1,1,0,0
21754276000,21754276000,1036000,41.606704,-86.3556021,-38.710773,68.464,-76.05283,0.0004925808,0.000107556276,0.0,-2.974606,5.2623706,-5.6478453,-5.6556706,-0.00020542361,-0.0023216454,0.0030729105,-0.04482115,0.08972366,0.048516255,-1.0493981,0.079677045,229.40294,76.29253,0.3667576,0.41480982,0.1415857,0.10981471,inf,inf,inf,inf,1,1,1,1,2,0,2,1,48,1,1,1,0,0
21754780000,21754780000,1036000,41.606704,-86.3556021,-40.204464,71.11766,-78.90127,0.0004925808,0.000107556276,0.0,-2.9765928,5.2703557,-5.634808,-5.642423,-0.00020542361,-0.0023216454,0.0030729105,-0.0476833,0.062277798,-0.00058493373,-1.0494664,0.079677045,229.40294,79.14096,0.3699918,0.41687956,0.14331761,0.110179506,inf,inf,inf,inf,1,1,1,1,2,0,2,1,48,1,1,1,0,0
21755276000,21755276000,1036000,41.606704,-86.3556021,-41.679947,73.72836,-81.70874,0.0004925808,0.000107556276,0.0,-2.9865813,5.2759304,-5.628228,-5.644319,-0.00020542361,-0.0023216454,0.0030729105,-0.04834421,0.063688055,0.054513972,-1.0495224,0.079677045,229.40294,81.94843,0.37209207,0.41829005,0.14419512,0.110318646,inf,inf,inf,inf,1,1,1,1,2,0,2,1,48,1,1,1,0,0
21755780000,21755780000,1036000,41.606704,-86.3556021,-43.181854,76.3774,-84.56794,0.0004925808,0.000107556276,0.0,-3.0113192,5.2760196,-5.633388,-5.659245,-0.00020542361,-0.0023216454,0.0030729105,-0.028381608,0.06467356,-0.027548583,-1.0494027,0.079677045,229.40294,84.80763,0.37460193,0.41730863,0.14521396,0.11024034,inf,inf,inf,inf,1,1,1,1,2,0,2,1,48,1,1,1,0,0
21756276000,21756276000,1036000,41.606704,-86.3556021,-44.659786,78.98554,-87.38111,0.0004925808,0.000107556276,0.0,-3.0089386,5.2819877,-5.6228595,-5.654282,-0.00020542361,-0.0023216454,0.0030729105,-0.06299018,0.13716224,-0.044520073,-1.0496699,0.079677045,229.40294,87.620804,0.37739718,0.41881576,0.14673461,0.11051884,inf,inf,inf,inf,1,1,1,1,2,0,2,1,48,1,1,1,0,0
21756780000,21756780000,1036000,41.606704,-86.3556021,-46.16525,81.64338,-90.23276,0.0004925808,0.000107556276,0.0,-3.010931,5.2863917,-5.6187844,-5.652061,-0.00020542361,-0.0023216454,0.0030729105,-0.22182123,0.23158261,-0.5494356,-1.0493255,0.079677045,229.40294,90.47245,0.3792551,0.41786134,0.1470754,0.110380016,inf,inf,inf,inf,1,1,1,1,2,0,2,1,48,1,1,1,0,0
21757276000,21757276000,1036000,41.606704,-86.3556021,-47.64384,84.26537,-93.045715,0.0004925808,0.000107556276,0.0,-3.0045102,5.2890296,-5.613845,-5.655941,-0.00020542361,-0.0023216454,0.0030729105,-0.023866462,0.011909172,-0.018458877,-1.0495404,0.079677045,229.40294,93.28541,0.3611124,0.41414562,0.1384496,0.107468024,inf,inf,inf,inf,1,1,1,1,2,0,2,1,48,1,1,1,0,0
21757780000,21757780000,1036000,41.606704,-86.3556021,-49.14912,86.92731,-95.911415,0.0004925808,0.000107556276,0.0,-3.007575,5.2837677,-5.6139503,-5.6656504,-0.00020542361,-0.0023216454,0.0030729105,-0.008154623,0.0770025,0.013795618,-1.0496149,0.079677045,229.40294,96.15111,0.3855458,0.41872823,0.15032353,0.110817105,inf,inf,inf,inf,1,1,1,1,2,0,2,1,48,1,1,1,0,0
21758276000,21758276000,1036000,41.606704,-86.3556021,-50.627804,89.547554,-98.72358,0.0004925808,0.000107556276,0.0,-3.0019326,5.2818933,-5.6067266,-5.6610594,-0.00020542361,-0.0023216454,0.0030729105,-0.03987225,0.038968362,0.09333894,-1.0493548,0.079677045,229.40294,98.96327,0.36558515,0.4148922,0.1404387,0.10779179,inf,inf,inf,inf,1,1,1,1,2,0,2,1,48,1,1,1,0,0
21758780000,21758780000,1036000,41.606704,-86.3556021,-52.13656,92.2147,-101.58631,0.0004925808,0.000107556276,0.0,-2.9991121,5.280073,-5.6030498,-5.6650667,-0.00020542361,-0.0023216454,0.0030729105,-0.015352854,-0.016881848,-0.010022956,-1.0495578,0.079677045,229.40294,101.826004,0.36893228,0.4142215,0.14226986,0.10800507,inf,inf,inf,inf,1,1,1,1,2,0,2,1,48,1,1,1,0,0
21759276000,21759276000,1036000,41.606704,-86.3556021,-53.62172,94.84392,-104.38999,0.0004925808,0.000107556276,0.0,-2.9941773,5.288723,-5.589159,-5.6468525,-0.00020542361,-0.0023216454,0.0030729105,0.026016612,0.10436015,-0.048619755,-1.0497147,0.079677045,229.40294,104.629684,0.37001222,0.41283852,0.14227505,0.107818834,inf,inf,inf,inf,1,1,1,1,2,0,2,1,48,1,1,1,0,0
21759780000,21759780000,1036000,41.606704,-86.3556021,-55.129105,97.51501,-107.24749,0.0004925808,0.000107556276,0.0,-2.9957893,5.300726,-5.589597,-5.6554914,-0.00020542361,-0.0023216454,0.0030729105,0.20146619,0.0327641,0.2947272,-1.0492839,0.079677045,229.40294,107.48718,0.3728166,0.41511282,0.14365368,0.108304255,inf,inf,inf,inf,1,1,1,1,2,0,2,1,48,1,1,1,0,0
21760276000,21760276000,1036000,41.606704,-86.3556021,-56.620182,100.15035,-110.06657,0.0004925808,0.000107556276,0.0,-2.9943564,5.310929,-5.587465,-5.663682,-0.00020542361,-0.0023216454,0.0030729105,0.022744788,-0.011490529,0.08095794,-1.0494869,0.079677045,229.40294,110.30626,0.37586522,0.41402733,0.14545019,0.108457856,inf,inf,inf,inf,1,1,1,1,2,0,2,1,48,1,1,1,0,0
21760780000,21760780000,1036000,41.606704,-86.3556021,-58.13344,102.82562,-112.92809,0.0004925808,0.000107556276,0.0,-2.9871266,5.318002,-5.592703,-5.674292,-0.00020542361,-0.0023216454,0.0030729105,0.0371009,0.08633331,0.08456682,-1.0494728,0.079677045,229.40294,113.167786,0.37784442,0.4162291,0.1459431,0.10881281,inf,inf,inf,inf,1,1,1,1,2,0,2,1,48,1,1,1,0,0
21761276000,21761276000,1036000,41.606704,-86.3556021,-59.62065,105.45172,-115.75807,0.0004925808,0.000107556276,0.0,-2.9863331,5.3186197,-5.6026087,-5.692475,-0.00020542361,-0.0023216454,0.0030729105,0.013355908,-0.024478424,0.015241962,-1.0493771,0.079677045,229.40294,115.997765,0.36004826,0.40999117,0.13759461,0.1058391,inf,inf,inf,inf,1,1,1,1,2,0,2,1,48,1,1,1,0,0
21761780000,21761780000,1036000,41.606704,-86.3556021,-61.130142,108.124,-118.62153,0.0004925808,0.000107556276,0.0,-2.9871967,5.323166,-5.6009192,-5.6837873,-0.00020542361,-0.0023216454,0.0030729105,0.004346491,0.024087507,-0.007492553,-1.0494787,0.079677045,229.40294,118.86122,0.38294384,0.41729277,0.1482495,0.10931873,inf,inf,inf,inf,1,1,1,1,2,0,2,1,48,1,1,1,0,0
21762276000,21762276000,1036000,41.606704,-86.3556021,-62.62247,110.7545,-121.44568,0.0004925808,0.000107556276,0.0,-2.9850278,5.3254833,-5.606606,-5.6918387,-0.00020542361,-0.0023216454,0.0030729105,-0.027238555,0.1107985,-0.07309212,-1.0495418,0.079677045,229.40294,121.68537,0.3637633,0.41367224,0.13906476,0.10653204,inf,inf,inf,inf,1,1,1,1,2,0,2,1,48,1,1,1,0,0
21762780000,21762780000,1036000,41.606704,-86.3556021,-64.13488,113.42362,-124.32899,0.0004925808,0.000107556276,0.0,-2.9804845,5.3250284,-5.611554,-5.7052445,-0.00020542361,-0.0023216454,0.0030729105,0.008204487,-0.44626978,0.7509877,-1.0495346,0.079677045,229.40294,124.56868,0.36729538,0.41303518,0.14118393,0.1068565,inf,inf,inf,inf,1,1,1,1,2,0,2,1,48,1,1,1,0,0
21763276000,21763276000,1036000,41.606704,-86.3556021,-65.61439,116.05894,-127.14721,0.0004925808,0.000107556276,0.0,-2.9742918,5.3279347,-5.615121,-5.696791,-0.00020542361,-0.0023216454,0.0030729105,0.053625774,-0.080239035,0.043100614,-1.0493871,0.079677045,229.40294,127.3869,0.3685858,0.41461653,0.14142545,0.107113406,inf,inf,inf,inf,1,1,1,1,2,0,2,1,48,1,1,1,0,0
21763780000,21763780000,1036000,41.606704,-86.3556021,-67.122185,118.74017,-130.02216,0.0004925808,0.000107556276,0.0,-2.97137,5.332622,-5.6244297,-5.706392,-0.00020542361,-0.0023216454,0.0030729105,-0.03095055,0.016532626,-0.0054184976,-1.0495654,0.079677045,229.40294,130.26186,0.3714925,0.41390574,0.14290771,0.10732896,inf,inf,inf,inf,1,1,1,1,2,0,2,1,48,1,1,1,0,0
21764276000,21764276000,1036000,41.606704,-86.3556021,-68.60455,121.37959,-132.85297,0.0004925808,0.000107556276,0.0,-2.9758065,5.3398623,-5.634564,-5.7142086,-0.00020542361,-0.0023216454,0.0030729105,0.03763959,0.023895642,-0.0020722558,-1.0496782,0.079677045,229.40294,133.09267,0.37335595,0.4154664,0.14364837,0.10767033,inf,inf,inf,inf,1,1,1,1,2,0,2,1,48,1,1,1,0,0
21764780000,21764780000,1036000,41.606704,-86.3556021,-70.11561,124.068825,-135.73077,0.0004925808,0.000107556276,0.0,-2.9725742,5.339529,-5.639101,-5.715114,-0.00020542361,-0.0023216454,0.0030729105,0.015946379,0.032312986,-0.0069346908,-1.0496914,0.079677045,229.40294,135.97047,0.37572002,0.41476148,0.14462957,0.107822284,inf,inf,inf,inf,1,1,1,1,2,0,2,1,48,1,1,1,0,0
21765276000,21765276000,1036000,41.606704,-86.3556021,-71.60382,126.716805,-138.55704,0.0004925808,0.000107556276,0.0,-2.980697,5.334928,-5.6379175,-5.707827,-0.00020542361,-0.0023216454,0.0030729105,-0.053532578,0.016169213,-0.051393233,-1.049529,0.079677045,229.40294,138.79674,0.35855615,0.41149664,0.13672245,0.10533566,inf,inf,inf,inf,1,1,1,1,2,0,2,1,48,1,1,1,0,0
21765780000,21765780000,1036000,41.606704,-86.3556021,-73.109764,129.40213,-141.43,0.0004925808,0.000107556276,0.0,-2.982647,5.323347,-5.640951,-5.70586,-0.00020542361,-0.0023216454,0.0030729105,-0.04277117,-0.0089882435,-0.15037046,-1.0494297,0.079677045,229.40294,141.6697,0.38131228,0.41579127,0.14740042,0.10851431,inf,inf,inf,inf,1,1,1,1,2,0,2,1,48,1,1,1,0,0
21766276000,21766276000,1036000,41.606704,-86.3556021,-74.60099,132.04306,-144.26279,0.0004925808,0.000107556276,0.0,-2.9858665,5.321749,-5.6451125,-5.7097406,-0.00020542361,-0.0023216454,0.0030729105,-0.009421451,-0.007466921,0.051036414,-1.0498924,0.079677045,229.40294,144.50249,0.36261445,0.41226786,0.1384874,0.10586851,inf,inf,inf,inf,1,1,1,1,2,0,2,1,48,1,1,1,0,0
21766780000,21766780000,1036000,41.606704,-86.3556021,-76.11754,134.72792,-147.13722,0.0004925808,0.000107556276,0.0,-2.9947023,5.323137,-5.646451,-5.7079725,-0.00020542361,-0.0023216454,0.0030729105,-0.021824267,0.010107818,-0.00859617,-1.0496,0.079677045,229.40294,147.37692,0.387003,0.41669798,0.1501252,0.10918766,inf,inf,inf,inf,1,1,1,1,2,0,2,1,48,1,1,1,0,0
21767276000,21767276000,1036000,41.606704,-86.3556021,-77.6032,137.36856,-149.96773,0.0004925808,0.000107556276,0.0,-2.9903584,5.320005,-5.6523223,-5.7110057,-0.00020542361,-0.0023216454,0.0030729105,0.023054283,0.0026542705,0.023969384,-1.0497634,0.079677045,229.40294,150.20743,0.3666261,0.41308588,0.14014691,0.10641538,inf,inf,inf,inf,1,1,1,1,2,0,2,1,48,1,1,1,0,0
21767780000,21767780000,1036000,41.606704,-86.3556021,-79.11,140.05281,-152.84872,0.0004925808,0.000107556276,0.0,-2.9848356,5.3214116,-5.6515684,-5.713384,-0.00020542361,-0.0023216454,0.0030729105,-0.047099777,-0.024157228,0.0084703155,-1.0495962,0.079677045,229.40294,153.08842,0.36975008,0.41236606,0.14189099,0.10671251,inf,inf,inf,inf,1,1,1,1,2,0,2,1,48,1,1,1,0,0
21768276000,21768276000,1036000,41.606704,-86.3556021,-80.59509,142.69681,-155.67859,0.0004925808,0.000107556276,0.0,-2.9839218,5.319317,-5.651663,-5.7096834,-0.00020542361,-0.0023216454,0.0030729105,0.032816924,-0.04605755,0.04445755,-1.0496047,0.079677045,229.40294,155.91829,0.37063643,0.4138492,0.14183655,0.10694668,inf,inf,inf,inf,1,1,1,1,2,0,2,1,48,1,1,1,0,0
21768780000,21768780000,1036000,41.606704,-86.3556021,-82.10408,145.38248,-158.5587,0.0004925808,0.000107556276,0.0,-2.982785,5.313265,-5.652587,-5.7126293,-0.00020542361,-0.0023216454,0.0030729105,0.0365677,0.035611056,-0.087412134,-1.0494759,0.079677045,229.40294,158.7984,0.37327498,0.4131604,0.14318529,0.107179545,inf,inf,inf,inf,1,1,1,1,2,0,2,1,48,1,1,1,0,0
21769276000,21769276000,1036000,41.606704,-86.3556021,-83.595985,148.03816,-161.38907,0.0004925808,0.000107556276,0.0,-2.9868724,5.3206177,-5.659647,-5.71491,-0.00020542361,-0.0023216454,0.0030729105,-0.2241232,0.2302049,-0.58506805,-1.0495011,0.079677045,229.40294,161.62877,0.3761796,0.4149208,0.14495917,0.10773973,inf,inf,inf,inf,1,1,1,1,2,0,2,1,48,1,1,1,0,0
21769780000,21769780000,1036000,41.606704,-86.3556021,-85.10515,150.73013,-164.26231,0.0004925808,0.000107556276,0.0,-2.9809232,5.3132467,-5.6597958,-5.709859,-0.00020542361,-0.0023216454,0.0030729105,-0.07158977,-0.025364598,0.04559656,-1.0495503,0.079677045,229.40294,164.50201,0.37811676,0.41420805,0.145528,0.10786331,inf,inf,inf,inf,1,1,1,1,2,0,2,1,48,1,1,1,0,0
21770276000,21770276000,1036000,41.606704,-86.3556021,-86.59727,153.38689,-167.09178,0.0004925808,0.000107556276,0.0,-2.9787447,5.3129544,-5.669707,-5.7158213,-0.00020542361,-0.0023216454,0.0030729105,0.0656347,-0.03663382,-0.013549874,-1.0494353,0.079677045,229.40294,167.33148,0.360301,0.4110596,0.13729064,0.10538912,inf,inf,inf,inf,1,1,1,1,2,0,2,1,48,1,1,1,0,0
21770780000,21770780000,1036000,41.606704,-86.3556021,-88.10965,156.07907,-169.97076,0.0004925808,0.000107556276,0.0,-2.983876,5.302295,-5.680619,-5.723198,-0.00020542361,-0.0023216454,0.0030729105,-0.037265386,-0.044741128,0.03959884,-1.0493459,0.079677045,229.40294,170.21046,0.38309792,0.41554126,0.14790598,0.10859744,inf,inf,inf,inf,1,1,1,1,2,0,2,1,48,1,1,1,0,0
21771276000,21771276000,1036000,41.606704,-86.3556021,-89.59892,158.73573,-172.80768,0.0004925808,0.000107556276,0.0,-2.9756963,5.306181,-5.6882477,-5.7274594,-0.00020542361,-0.0023216454,0.0030729105,-0.012819233,0.020629836,0.0051184855,-1.0493088,0.079677045,229.40294,173.04738,0.36387858,0.40938354,0.13878606,0.10565701,inf,inf,inf,inf,1,1,1,1,2,0,2,1,48,1,1,1,0,0
21771780000,21771780000,1036000,41.606704,-86.3556021,-91.11008,161.4339,-175.68971,0.0004925808,0.000107556276,0.0,-2.973263,5.310471,-5.693076,-5.7274556,-0.00020542361,-0.0023216454,0.0030729105,-0.030907866,0.036830872,-0.059043117,-1.0493056,0.079677045,229.40294,175.92941,0.3673538,0.41181752,0.14090672,0.1063957,inf,inf,inf,inf,1,1,1,1,2,0,2,1,48,1,1,1,0,0
21772276000,21772276000,1036000,41.606704,-86.3556021,-92.59755,164.0884,-178.52641,0.0004925808,0.000107556276,0.0,-2.9747767,5.3089523,-5.704268,-5.7333956,-0.00020542361,-0.0023216454,0.0030729105,0.13830419,-0.076066114,0.2531008,-1.0494584,0.079677045,229.40294,178.76611,0.3686702,0.41080818,0.14121391,0.10644718,inf,inf,inf,inf,1,1,1,1,2,0,2,1,48,1,1,1,0,0
21772780000,21772780000,1036000,41.606704,-86.3556021,-94.10444,166.78297,-181.40973,0.0004925808,0.000107556276,0.0,-2.972727,5.3017516,-5.7063613,-5.729907,-0.00020542361,-0.0023216454,0.0030729105,0.0407662,-0.0028297922,0.05702854,-1.0496428,0.079677045,229.40294,181.64943,0.37153512,0.413257,0.14269099,0.107077196,inf,inf,inf,inf,1,1,1,1,2,0,2,1,48,1,1,1,0,0
21773276000,21773276000,1036000,41.606704,-86.3556021,-95.584854,169.43103,-184.25113,0.0004925808,0.000107556276,0.0,-2.974867,5.302629,-5.712126,-5.7340255,-0.00020542361,-0.0023216454,0.0030729105,0.03344171,-0.036763154,0.044946495,-1.0497518,0.079677045,229.40294,184.49083,0.3733678,0.41228062,0.14341205,0.10718901,inf,inf,inf,inf,1,1,1,1,2,0,2,1,48,1,1,1,0,0
21773780000,21773780000,1036000,41.606704,-86.3556021,-97.080696,172.1227,-187.13478,0.0004925808,0.000107556276,0.0,-2.9695072,5.2998576,-5.7155795,-5.732265,-0.00020542361,-0.0023216454,0.0030729105,0.07401206,-0.047426846,0.02645229,-1.0499419,0.079677045,229.40294,187.37448,0.3757051,0.41467577,0.14437234,0.10771871,inf,inf,inf,inf,1,1,1,1,2,0,2,1,48,1,1,1,0,0
21774276000,21774276000,1036000,41.606704,-86.3556021,-98.553024,174.77484,-189.97543,0.0004925808,0.000107556276,0.0,-2.9674392,5.2910285,-5.7313437,-5.744546,-0.00020542361,-0.0023216454,0.0030729105,0.012257493,-0.024855446,-0.06567227,-1.0496005,0.079677045,229.40294,190.21513,0.3585494,0.4087042,0.1365664,0.104956485,inf,inf,inf,inf,1,1,1,1,2,0,2,1,48,1,1,1,0,0
21774780000,21774780000,1036000,41.606704,-86.3556021,-100.054054,177.45663,-192.87096,0.0004925808,0.000107556276,0.0,-2.974597,5.2836914,-5.7382126,-5.7503386,-0.00020542361,-0.0023216454,0.0030729105,-0.08982466,-0.04628239,-0.10179455,-1.0492421,0.079677045,229.40294,193.11066,0.38126138,0.41592455,0.14721733,0.10846554,inf,inf,inf,inf,1,1,1,1,2,0,2,1,48,1,1,1,0,0
21775276000,21775276000,1036000,41.606704,-86.3556021,-101.54025,180.10503,-195.70416,0.0004925808,0.000107556276,0.0,-2.9723654,5.285116,-5.7403684,-5.736935,-0.00020542361,-0.0023216454,0.0030729105,0.02545839,-0.51397794,0.6757592,-1.0496582,0.079677045,229.40294,195.94386,0.3625331,0.4124519,0.13831376,0.10582803,inf,inf,inf,inf,1,1,1,1,2,0,2,1,48,1,1,1,0,0
21775780000,21775780000,1036000,41.606704,-86.3556021,-103.04653,182.79271,-198.59111,0.0004925808,0.000107556276,0.0,-2.976283,5.2804627,-5.74651,-5.739342,-0.00020542361,-0.0023216454,0.0030729105,0.028017888,-0.11433954,0.0040334947,-1.0498772,0.079677045,229.40294,198.83081,0.38687423,0.41685396,0.14995334,0.10913282,inf,inf,inf,inf,1,1,1,1,2,0,2,1,48,1,1,1,0,0
21776276000,21776276000,1036000,41.606704,-86.3556021,-104.524704,185.44003,-201.41667,0.0004925808,0.000107556276,0.0,-2.9754393,5.2792225,-5.748805,-5.7253027,-0.00020542361,-0.0023216454,0.0030729105,0.012160801,-0.008945899,0.007127348,-1.0497143,0.079677045,229.40294,201.65637,0.36654553,0.41321343,0.14002979,0.10636278,inf,inf,inf,inf,1,1,1,1,2,0,2,1,48,1,1,1,0,0
21776780000,21776780000,1036000,41.606704,-86.3556021,-106.03258,188.13364,-204.29005,0.0004925808,0.000107556276,0.0,-2.97898,5.281609,-5.753074,-5.7213025,-0.00020542361,-0.0023216454,0.0030729105,0.036373723,-0.023115529,-0.016761076,-1.0491612,0.079677045,229.40294,204.52975,0.36973366,0.4126382,0.14183827,0.106708445,inf,inf,inf,inf,1,1,1,1,2,0,2,1,48,1,1,1,0,0
21777276000,21777276000,1036000,41.606704,-86.3556021,-107.5117,190.77051,-207.13214,0.0004925808,0.000107556276,0.0,-2.9801178,5.275208,-5.760931,-5.7330685,-0.00020542361,-0.0023216454,0.0030729105,-0.008980477,0.026175624,-0.0061914953,-1.049479,0.079677045,229.40294,207.37184,0.37180865,0.4143018,0.14280334,0.10714399,inf,inf,inf,inf,1,1,1,1,2,0,2,1,48,1,1,1,0,0
21777780000,21777780000,1036000,41.606704,-86.3556021,-109.01704,193.44849,-210.01074,0.0004925808,0.000107556276,0.0,-2.9786875,5.270599,-5.7592,-5.7239795,-0.00020542361,-0.0023216454,0.0030729105,0.007921207,-0.020339128,-0.083306864,-1.0492042,0.079677045,229.40294,210.25044,0.37429583,0.4135272,0.1438569,0.10733055,inf,inf,inf,inf,1,1,1,1,2,0,2,1,48,1,1,1,0,0
21778276000,21778276000,1036000,41.606704,-86.3556021,-110.49622,196.08627,-212.83366,0.0004925808,0.000107556276,0.0,-2.975934,5.265897,-5.7498465,-5.70537,-0.00020542361,-0.0023216454,0.0030729105,-0.006304769,0.08984854,-0.17837067,-1.0492074,0.079677045,229.40294,213.07336,0.37706068,0.41514704,0.14540677,0.107835166,inf,inf,inf,inf,1,1,1,1,2,0,2,1,48,1,1,1,0,0
21778780000,21778780000,1036000,41.606704,-86.3556021,-111.998245,198.76494,-215.72464,0.0004925808,0.000107556276,0.0,-2.982678,5.2656584,-5.7568855,-5.72502,-0.00020542361,-0.0023216454,0.0030729105,-0.22684063,0.18726796,-0.56963694,-1.048881,0.079677045,229.40294,215.96434,0.37891337,0.4171983,0.14584638,0.108250245,inf,inf,inf,inf,1,1,1,1,2,0,2,1,48,1,1,1,0,0
21779276000,21779276000,1036000,41.606704,-86.3556021,-113.478775,201.41293,-218.56126,0.0004925808,0.000107556276,0.0,-2.9761095,5.2685375,-5.7554817,-5.7224565,-0.00020542361,-0.0023216454,0.0030729105,0.036256604,0.07578929,-0.0414346,-1.0493608,0.079677045,229.40294,218.80096,0.3608964,0.410958,0.13746169,0.10540237,inf,inf,inf,inf,1,1,1,1,2,0,2,1,48,1,1,1,0,0
21779780000,21779780000,1036000,41.606704,-86.3556021,-114.973885,204.09203,-221.43484,0.0004925808,0.000107556276,0.0,-2.9757025,5.266862,-5.752384,-5.712984,-0.00020542361,-0.0023216454,0.0030729105,-0.095421486,0.061467584,-0.026283847,-1.0495195,0.079677045,229.40294,221.67455,0.38515723,0.4155812,0.14918143,0.10881448,inf,inf,inf,inf,1,1,1,1,2,0,2,1,48,1,1,1,0,0
21780276000,21780276000,1036000,41.606704,-86.3556021,-116.45261,206.72922,-224.27386,0.0004925808,0.000107556276,0.0,-2.9775643,5.265947,-5.7570987,-5.7211947,-0.00020542361,-0.0023216454,0.0030729105,0.039210875,-0.019227378,-0.029204475,-1.0495039,0.079677045,229.40294,224.51357,0.36535233,0.41217932,0.13957883,0.10614658,inf,inf,inf,inf,1,1,1,1,2,0,2,1,48,1,1,1,0,0
21780780000,21780780000,1036000,41.606704,-86.3556021,-117.952705,209.4065,-227.15077,0.0004925808,0.000107556276,0.0,-2.9783072,5.2625513,-5.753332,-5.713085,-0.00020542361,-0.0023216454,0.0030729105,-0.01695263,0.0613982,0.019052,-1.049518,0.079677045,229.40294,227.39047,0.36862388,0.411595,0.14141303,0.10649699,inf,inf,inf,inf,1,1,1,1,2,0,2,1,48,1,1,1,0,0
21781276000,21781276000,1036000,41.606704,-86.3556021,-119.42399,212.03488,-229.97998,0.0004925808,0.000107556276,0.0,-2.9790916,5.2573323,-5.7440515,-5.7024612,-0.00020542361,-0.0023216454,0.0030729105,0.08838667,0.028256869,-0.12893979,-1.0495381,0.079677045,229.40294,230.21968,0.36972025,0.4131068,0.14148593,0.10676457,inf,inf,inf,inf,1,1,1,1,2,0,2,1,48,1,1,1,0,0
21781780000,21781780000,1036000,41.606704,-86.3556021,-120.913124,214.71393,-232.84933,0.0004925808,0.000107556276,0.0,-2.965962,5.266759,-5.7356176,-5.6936865,-0.00020542361,-0.0023216454,0.0030729105,0.24166271,-0.098386794,0.15220039,-1.049362,0.079677045,229.40294,233.08904,0.37252268,0.41527826,0.14288642,0.10733464,inf,inf,inf,inf,1,1,1,1,2,0,2,1,48,1,1,1,0,0
21782276000,21782276000,1036000,41.606704,-86.3556021,-122.38478,217.35054,-235.6837,0.0004925808,0.000107556276,0.0,-2.9646897,5.2661314,-5.727786,-5.6973786,-0.00020542361,-0.0023216454,0.0030729105,-0.0033334694,-0.056833472,-0.014388995,-1.0494142,0.079677045,229.40294,235.9234,0.37556326,0.41407442,0.1447,0.10757098,inf,inf,inf,inf,1,1,1,1,2,0,2,1,48,1,1,1,0,0
21782780000,21782780000,1036000,41.606704,-86.3556021,-123.88057,220.01941,-238.55515,0.0004925808,0.000107556276,0.0,-2.9596355,5.2645154,-5.7152166,-5.6863317,-0.00020542361,-0.0023216454,0.0030729105,0.10678056,-0.0348876,0.022032233,-1.0495073,0.079677045,229.40294,238.79485,0.3775531,0.41621384,0.14521793,0.10801842,inf,inf,inf,inf,1,1,1,1,2,0,2,1,48,1,1,1,0,0
21783276000,21783276000,1036000,41.606704,-86.3556021,-125.34428,222.65248,-241.37947,0.0004925808,0.000107556276,0.0,-2.9608452,5.2651772,-5.7052326,-5.681629,-0.00020542361,-0.0023216454,0.0030729105,-0.017697994,-0.00899762,0.042994443,-1.0493387,0.079677045,229.40294,241.61917,0.35986683,0.409945,0.13698867,0.10517906,inf,inf,inf,inf,1,1,1,1,2,0,2,1,48,1,1,1,0,0
21783780000,21783780000,1036000,41.606704,-86.3556021,-126.8379,225.32207,-244.24124,0.0004925808,0.000107556276,0.0,-2.9681685,5.2673197,-5.6866055,-5.6658816,-0.00020542361,-0.0023216454,0.0030729105,0.002185902,0.019741327,-0.032972604,-1.0493271,0.079677045,229.40294,244.48094,0.38265875,0.41701782,0.14752237,0.108664885,inf,inf,inf,inf,1,1,1,1,2,0,2,1,48,1,1,1,0,0
21784276000,21784276000,1036000,41.606704,-86.3556021,-128.3085,227.94598,-247.05879,0.0004925808,0.000107556276,0.0,-2.9697611,5.2653174,-5.6657662,-5.654452,-0.00020542361,-0.0023216454,0.0030729105,-0.007941712,0.09040047,-0.084807225,-1.0495702,0.079677045,229.40294,247.2985,0.3635851,0.41336125,0.13844746,0.10598909,inf,inf,inf,inf,1,1,1,1,2,0,2,1,48,1,1,1,0,0
21784780000,21784780000,1036000,41.606704,-86.3556021,-129.79947,230.6162,-249.91199,0.0004925808,0.000107556276,0.0,-2.9592414,5.2630124,-5.6497283,-5.6434565,-0.00020542361,-0.0023216454,0.0030729105,0.0163092,-0.3768285,0.7105217,-1.0492646,0.079677045,229.40294,250.15169,0.36710218,0.4125557,0.14056209,0.106349744,inf,inf,inf,inf,1,1,1,1,2,0,2,1,48,1,1,1,0,0
21785276000,21785276000,1036000,41.606704,-86.3556021,-131.2598,233.23563,-252.7171,0.0004925808,0.000107556276,0.0,-2.9527473,5.2635365,-5.6346345,-5.6354957,-0.00020542361,-0.0023216454,0.0030729105,0.07302084,-0.060330972,0.046870608,-1.0492282,0.079677045,229.40294,252.9568,0.36840072,0.41389504,0.14082138,0.10662753,inf,inf,inf,inf,1,1,1,1,2,0,2,1,48,1,1,1,0,0
21785780000,21785780000,1036000,41.606704,-86.3556021,-132.74515,235.89645,-255.5787,0.0004925808,0.000107556276,0.0,-2.9533656,5.2623515,-5.6232047,-5.6437483,-0.00020542361,-0.0023216454,0.0030729105,0.010890411,-0.06155167,0.095076784,-1.0493093,0.079677045,229.40294,255.8184,0.3712979,0.4158818,0.14229245,0.10719711,inf,inf,inf,inf,1,1,1,1,2,0,2,1,48,1,1,1,0,0
21786276000,21786276000,1036000,41.606704,-86.3556021,-134.21158,238.50835,-258.3955,0.0004925808,0.000107556276,0.0,-2.9506476,5.2597656,-5.6162715,-5.6498685,-0.00020542361,-0.0023216454,0.0030729105,0.045176383,-0.048069343,0.07264123,-1.0491984,0.079677045,229.40294,258.6352,0.37315995,0.41441032,0.14305052,0.10724835,inf,inf,inf,inf,1,1,1,1,2,0,2,1,48,1,1,1,0,0
21786780000,21786780000,1036000,41.606704,-86.3556021,-135.70374,241.17305,-261.25726,0.0004925808,0.000107556276,0.0,-2.9480257,5.262905,-5.6130543,-5.6567106,-0.00020542361,-0.0023216454,0.0030729105,-0.010492139,0.019671457,0.029528448,-1.0491027,0.079677045,229.40294,261.49695,0.37552142,0.4164339,0.1440646,0.10775022,inf,inf,inf,inf,1,1,1,1,2,0,2,1,48,1,1,1,0,0
21787276000,21787276000,1036000,41.606704,-86.3556021,-137.16673,243.7924,-264.07858,0.0004925808,0.000107556276,0.0,-2.9468255,5.2611413,-5.6097956,-5.664982,-0.00020542361,-0.0023216454,0.0030729105,-0.031315703,0.051768657,-0.07097243,-1.0491033,0.079677045,229.40294,264.31827,0.3584253,0.41012505,0.13629057,0.10497398,inf,inf,inf,inf,1,1,1,1,2,0,2,1,48,1,1,1,0,0
21787780000,21787780000,1036000,41.606704,-86.3556021,-138.656,246.44806,-266.94083,0.0004925808,0.000107556276,0.0,-2.9412127,5.2603064,-5.607731,-5.6658926,-0.00020542361,-0.0023216454,0.0030729105,-0.038097844,0.115697525,-0.14147353,-1.0493016,0.079677045,229.40294,267.1805,0.38110662,0.4171035,0.14691667,0.10848076,inf,inf,inf,inf,1,1,1,1,2,0,2,1,48,1,1,1,0,0
21788276000,21788276000,1036000,41.606704,-86.3556021,-140.127,249.06708,-269.76727,0.0004925808,0.000107556276,0.0,-2.9396875,5.266426,-5.6073203,-5.6756268,-0.00020542361,-0.0023216454,0.0030729105,0.025452033,0.011003183,0.042003516,-1.049195,0.079677045,229.40294,270.00696,0.36242834,0.41343364,0.13806464,0.105843924,inf,inf,inf,inf,1,1,1,1,2,0,2,1,48,1,1,1,0,0
21788780000,21788780000,1036000,41.606704,-86.3556021,-141.61592,251.72707,-272.63455,0.0004925808,0.000107556276,0.0,-2.9390824,5.2661133,-5.6142216,-5.681839,-0.00020542361,-0.0023216454,0.0030729105,0.06147786,-0.03857467,0.0320216,-1.0491999,0.079677045,229.40294,272.87424,0.3867362,0.41764382,0.14967932,0.10915557,inf,inf,inf,inf,1,1,1,1,2,0,2,1,48,1,1,1,0,0
21789276000,21789276000,1036000,41.606704,-86.3556021,-143.07013,254.34808,-275.45328,0.0004925808,0.000107556276,0.0,-2.9256444,5.276345,-5.617245,-5.6838484,-0.00020542361,-0.0023216454,0.0030729105,-0.020772638,0.0050987694,0.021788226,-1.0492387,0.079677045,229.40294,275.69296,0.3664589,0.41379046,0.1398168,0.10637151,inf,inf,inf,inf,1,1,1,1,2,0,2,1,48,1,1,1,0,0
21789780000,21789780000,1036000,41.606704,-86.3556021,-144.55258,257.01666,-278.32376,0.0004925808,0.000107556276,0.0,-2.9258394,5.2752028,-5.620382,-5.6905675,-0.00020542361,-0.0023216454,0.0030729105,-0.015103373,0.010610477,0.043446135,-1.0496614,0.079677045,229.40294,278.56345,0.36965126,0.41575277,0.14165589,0.106993146,inf,inf,inf,inf,1,1,1,1,2,0,2,1,48,1,1,1,0,0
21790276000,21790276000,1036000,41.606704,-86.3556021,-146.01772,259.64243,-281.14056,0.0004925808,0.000107556276,0.0,-2.9318438,5.275132,-5.6145034,-5.679064,-0.00020542361,-0.0023216454,0.0030729105,0.0034770693,-0.033537198,0.012115512,-1.0494908,0.079677045,229.40294,281.38025,0.37173212,0.4142176,0.14258058,0.10707346,inf,inf,inf,inf,1,1,1,1,2,0,2,1,48,1,1,1,0,0
21790780000,21790780000,1036000,41.606704,-86.3556021,-147.50589,262.3026,-284.0003,0.0004925808,0.000107556276,0.0,-2.9353964,5.2656856,-5.6123934,-5.674452,-0.00020542361,-0.0023216454,0.0030729105,0.011605231,0.066987135,-0.1448589,-1.0490966,0.079677045,229.40294,284.24,0.3742896,0.41625965,0.14371945,0.10761346,inf,inf,inf,inf,1,1,1,1,2,0,2,1,48,1,1,1,0,0
21791276000,21791276000,1036000,41.606704,-86.3556021,-148.97238,264.92245,-286.82312,0.0004925808,0.000107556276,0.0,-2.9403362,5.2699018,-5.6238847,-5.6887197,-0.00020542361,-0.0023216454,0.0030729105,-0.2413833,0.19887947,-0.5056793,-1.0496198,0.079677045,229.40294,287.0628,0.3770508,0.41490692,0.14529727,0.10780982,inf,inf,inf,inf,1,1,1,1,2,0,2,1,48,1,1,1,0,0
21791780000,21791780000,1036000,41.606704,-86.3556021,-150.45753,267.58807,-289.69077,0.0004925808,0.000107556276,0.0,-2.9492722,5.2696843,-5.623656,-5.689889,-0.00020542361,-0.0023216454,0.0030729105,-0.06430812,0.008588199,0.004394848,-1.0492918,0.079677045,229.40294,289.93045,0.37890157,0.41408405,0.14573367,0.107931636,inf,inf,inf,inf,1,1,1,1,2,0,2,1,48,1,1,1,0,0
21792276000,21792276000,1036000,41.606704,-86.3556021,-151.91824,270.21875,-292.51346,0.0004925808,0.000107556276,0.0,-2.948839,5.267786,-5.626883,-5.6917977,-0.00020542361,-0.0023216454,0.0030729105,0.03996596,-0.06822412,0.031144295,-1.0496899,0.079677045,229.40294,292.75314,0.3608884,0.4107871,0.13736458,0.105428815,inf,inf,inf,inf,1,1,1,1,2,0,2,1,48,1,1,1,0,0
21792780000,21792780000,1036000,41.606704,-86.3556021,-153.3963,272.88293,-295.38382,0.0004925808,0.000107556276,0.0,-2.9462738,5.2665324,-5.629458,-5.6941276,-0.00020542361,-0.0023216454,0.0030729105,0.028060772,-0.00040211144,0.029548937,-1.049911,0.079677045,229.40294,295.6235,0.3851376,0.41811326,0.14906514,0.10913645,inf,inf,inf,inf,1,1,1,1,2,0,2,1,48,1,1,1,0,0
21793276000,21793276000,1036000,41.606704,-86.3556021,-154.84604,275.5117,-298.20102,0.0004925808,0.000107556276,0.0,-2.937752,5.2651286,-5.6231318,-5.683712,-0.00020542361,-0.0023216454,0.0030729105,-0.029789072,-0.016040286,-0.045520313,-1.049462,0.079677045,229.40294,298.4407,0.3652255,0.41157117,0.1393421,0.10607163,inf,inf,inf,inf,1,1,1,1,2,0,2,1,48,1,1,1,0,0
21793780000,21793780000,1036000,41.606704,-86.3556021,-156.32396,278.18387,-301.07544,0.0004925808,0.000107556276,0.0,-2.938728,5.2597127,-5.62266,-5.6909394,-0.00020542361,-0.0023216454,0.0030729105,-0.015010901,0.08048571,-0.10098709,-1.0491554,0.079677045,229.40294,301.31512,0.368566,0.41377544,0.14126307,0.10675078,inf,inf,inf,inf,1,1,1,1,2,0,2,1,48,1,1,1,0,0
21794276000,21794276000,1036000,41.606704,-86.3556021,-157.77786,280.80768,-303.89642,0.0004925808,0.000107556276,0.0,-2.9266014,5.2636123,-5.6235704,-5.690102,-0.00020542361,-0.0023216454,0.0030729105,0.24079335,-0.018188555,0.28609383,-1.0494788,0.079677045,229.40294,304.1361,0.36966676,0.41240314,0.14134893,0.10670946,inf,inf,inf,inf,1,1,1,1,2,0,2,1,48,1,1,1,0,0
21794780000,21794780000,1036000,41.606704,-86.3556021,-159.25757,283.47684,-306.76498,0.0004925808,0.000107556276,0.0,-2.929659,5.251517,-5.6267056,-5.692236,-0.00020542361,-0.0023216454,0.0030729105,0.015156672,-0.0687275,0.06158084,-1.0493585,0.079677045,229.40294,307.00467,0.37247387,0.41464877,0.14280923,0.10730696,inf,inf,inf,inf,1,1,1,1,2,0,2,1,48,1,1,1,0,0
21795276000,21795276000,1036000,41.606704,-86.3556021,-160.71344,286.10117,-309.59012,0.0004925808,0.000107556276,0.0,-2.9364877,5.2526555,-5.6390233,-5.7029347,-0.00020542361,-0.0023216454,0.0030729105,-0.026897596,-0.03586349,0.117927715,-1.0493488,0.079677045,229.40294,309.8298,0.3755211,0.4134768,0.14466314,0.107555166,inf,inf,inf,inf,1,1,1,1,2,0,2,1,48,1,1,1,0,0
21795780000,21795780000,1036000,41.606704,-86.3556021,-162.19061,288.76935,-312.46954,0.0004925808,0.000107556276,0.0,-2.9392247,5.2455673,-5.6543326,-5.719649,-0.00020542361,-0.0023216454,0.0030729105,0.00019557576,-0.06979335,-0.045825787,-1.0497183,0.079677045,229.40294,312.70923,0.37751886,0.4156206,0.1452358,0.10800703,inf,inf,inf,inf,1,1,1,1,2,0,2,1,48,1,1,1,0,0
21796276000,21796276000,1036000,41.606704,-86.3556021,-163.64447,291.40384,-315.29852,0.0004925808,0.000107556276,0.0,-2.9487038,5.245965,-5.6650853,-5.721471,-0.00020542361,-0.0023216454,0.0030729105,-0.097037315,-0.010559465,-0.0916273,-1.049822,0.079677045,229.40294,315.5382,0.3597863,0.4094187,0.13700412,0.10517144,inf,inf,inf,inf,1,1,1,1,2,0,2,1,48,1,1,1,0,0
21796780000,21796780000,1036000,41.606704,-86.3556021,-165.12352,294.07343,-318.1788,0.0004925808,0.000107556276,0.0,-2.9547086,5.247627,-5.67161,-5.72359,-0.00020542361,-0.0023216454,0.0030729105,-0.06911977,0.0047335564,-0.12308644,-1.0493332,0.079677045,229.40294,318.4185,0.38258216,0.41673443,0.14760138,0.10871931,inf,inf,inf,inf,1,1,1,1,2,0,2,1,48,1,1,1,0,0
21797276000,21797276000,1036000,41.606704,-86.3556021,-166.57382,296.70844,-321.0038,0.0004925808,0.000107556276,0.0,-2.9622145,5.249136,-5.674342,-5.714728,-0.00020542361,-0.0023216454,0.0030729105,0.023600886,-0.36689252,0.6966636,-1.0493513,0.079677045,229.40294,321.2435,0.3635315,0.41048977,0.1385586,0.10577714,inf,inf,inf,inf,1,1,1,1,2,0,2,1,48,1,1,1,0,0
21797780000,21797780000,1036000,41.606704,-86.3556021,-168.04915,299.38406,-323.87372,0.0004925808,0.000107556276,0.0,-2.9601815,5.2508917,-5.675737,-5.707969,-0.00020542361,-0.0023216454,0.0030729105,0.010333056,-0.013075925,-0.054175094,-1.0493411,0.079677045,229.40294,324.1134,0.36706454,0.4127859,0.14068675,0.106497325,inf,inf,inf,inf,1,1,1,1,2,0,2,1,48,1,1,1,0,0
21798276000,21798276000,1036000,41.606704,-86.3556021,-169.5025,302.00778,-326.70398,0.0004925808,0.000107556276,0.0,-2.9587731,5.249149,-5.6777325,-5.7102757,-0.00020542361,-0.0023216454,0.0030729105,0.060885303,-0.07592731,0.026414106,-1.0496438,0.079677045,229.40294,326.94366,0.36837602,0.41146535,0.14095056,0.106484115,inf,inf,inf,inf,1,1,1,1,2,0,2,1,48,1,1,1,0,0
21798780000,21798780000,1036000,41.606704,-86.3556021,-170.97322,304.6819,-329.58862,0.0004925808,0.000107556276,0.0,-2.950831,5.244312,-5.6835175,-5.7210164,-0.00020542361,-0.0023216454,0.0030729105,-0.032753468,-0.07522399,0.039242145,-1.049181,0.079677045,229.40294,329.8283,0.3712874,0.41376084,0.14243542,0.10709706,inf,inf,inf,inf,1,1,1,1,2,0,2,1,48,1,1,1,0,0
21799276000,21799276000,1036000,41.606704,-86.3556021,-172.42162,307.30334,-332.42557,0.0004925808,0.000107556276,0.0,-2.9473248,5.2354455,-5.689177,-5.7254744,-0.00020542361,-0.0023216454,0.0030729105,0.12189544,-0.021221416,-0.02914487,-1.0498137,0.079677045,229.40294,332.66525,0.37315992,0.41261134,0.14320551,0.107186645,inf,inf,inf,inf,1,1,1,1,2,0,2,1,48,1,1,1,0,0
21799780000,21799780000,1036000,41.606704,-86.3556021,-173.88855,309.97607,-335.3084,0.0004925808,0.000107556276,0.0,-2.938337,5.23769,-5.6966786,-5.7294846,-0.00020542361,-0.0023216454,0.0030729105,0.051667314,-0.010449757,-0.093433134,-1.0494095,0.079677045,229.40294,335.5481,0.3755305,0.414875,0.14420456,0.107706904,inf,inf,inf,inf,1,1,1,1,2,0,2,1,48,1,1,1,0,0
21800276000,21800276000,1036000,41.606704,-86.3556021,-175.33197,312.61523,-338.14005,0.0004925808,0.000107556276,0.0,-2.934414,5.2381105,-5.6892114,-5.714227,-0.00020542361,-0.0023216454,0.0030729105,0.038188647,0.08111185,-0.06483594,-1.0491819,0.079677045,229.40294,338.37973,0.35843092,0.41164106,0.13639455,0.10525301,inf,inf,inf,inf,1,1,1,1,2,0,2,1,48,1,1,1,0,0
21800780000,21800780000,1036000,41.606704,-86.3556021,-176.80464,315.27612,-341.0172,0.0004925808,0.000107556276,0.0,-2.9333117,5.225768,-5.6970267,-5.7179685,-0.00020542361,-0.0023216454,0.0030729105,-0.235415,0.11773015,-0.54338765,-1.0492938,0.079677045,229.40294,341.2569,0.38112786,0.41595677,0.1470175,0.10845081,inf,inf,inf,inf,1,1,1,1,2,0,2,1,48,1,1,1,0,0
21801276000,21801276000,1036000,41.606704,-86.3556021,-178.25284,317.8988,-343.85455,0.0004925808,0.000107556276,0.0,-2.9316561,5.2142577,-5.7017717,-5.7237673,-0.00020542361,-0.0023216454,0.0030729105,0.030997008,-0.064580865,0.12520695,-1.0494784,0.079677045,229.40294,344.09424,0.36244494,0.4125239,0.13815792,0.105832234,inf,inf,inf,inf,1,1,1,1,2,0,2,1,48,1,1,1,0,0
21801780000,21801780000,1036000,41.606704,-86.3556021,-179.73076,320.56308,-346.73428,0.0004925808,0.000107556276,0.0,-2.9289606,5.2132254,-5.7086115,-5.724619,-0.00020542361,-0.0023216454,0.0030729105,0.0032407765,-0.004977797,0.038757857,-1.0490832,0.079677045,229.40294,346.97397,0.38676766,0.4170965,0.14976749,0.1091892,inf,inf,inf,inf,1,1,1,1,2,0,2,1,48,1,1,1,0,0
21802276000,21802276000,1036000,41.606704,-86.3556021,-181.17783,323.1899,-349.55667,0.0004925808,0.000107556276,0.0,-2.9195063,5.212473,-5.7107897,-5.714131,-0.00020542361,-0.0023216454,0.0030729105,0.038835008,-0.033896673,0.014600281,-1.0491375,0.079677045,229.40294,349.79636,0.36647788,0.4135577,0.13989992,0.106438845,inf,inf,inf,inf,1,1,1,1,2,0,2,1,48,1,1,1,0,0
21802780000,21802780000,1036000,41.606704,-86.3556021,-182.64822,325.86142,-352.44305,0.0004925808,0.000107556276,0.0,-2.9123092,5.207236,-5.722639,-5.7290077,-0.00020542361,-0.0023216454,0.0030729105,0.006567637,-0.03644034,-0.050141536,-1.0495361,0.079677045,229.40294,352.68274,0.3696711,0.4129786,0.14172973,0.10677163,inf,inf,inf,inf,1,1,1,1,2,0,2,1,48,1,1,1,0,0
21803276000,21803276000,1036000,41.606704,-86.3556021,-184.09732,328.4844,-355.27808,0.0004925808,0.000107556276,0.0,-2.9112694,5.2100635,-5.7209516,-5.722985,-0.00020542361,-0.0023216454,0.0030729105,0.033452593,0.0067946794,-0.10684511,-1.0494113,0.079677045,229.40294,355.51776,0.37175202,0.41471294,0.14266828,0.10721876,inf,inf,inf,inf,1,1,1,1,2,0,2,1,48,1,1,1,0,0
21803780000,21803780000,1036000,41.606704,-86.3556021,-185.57304,331.15286,-358.15353,0.0004925808,0.000107556276,0.0,-2.9206934,5.2072773,-5.7273965,-5.721894,-0.00020542361,-0.0023216454,0.0030729105,0.18275146,-0.07292935,0.23617588,-1.04932,0.079677045,229.40294,358.39322,0.37424326,0.41403708,0.14374498,0.10742149,inf,inf,inf,inf,1,1,1,1,2,0,2,1,48,1,1,1,0,0
21804276000,21804276000,1036000,41.606704,-86.3556021,-187.02774,333.77823,-360.98334,0.0004925808,0.000107556276,0.0,-2.9252205,5.201247,-5.723867,-5.7143893,-0.00020542361,-0.0023216454,0.0030729105,0.046387408,-0.05797414,-0.014841618,-1.0492198,0.079677045,229.40294,361.22302,0.37701097,0.4158222,0.14531605,0.107953906,inf,inf,inf,inf,1,1,1,1,2,0,2,1,48,1,1,1,0,0
21804780000,21804780000,1036000,41.606704,-86.3556021,-188.49467,336.43845,-363.86252,0.0004925808,0.000107556276,0.0,-2.918171,5.2040024,-5.725228,-5.7141438,-0.00020542361,-0.0023216454,0.0030729105,-0.05107714,0.0044291685,0.07381842,-1.0493941,0.079677045,229.40294,364.1022,0.37886927,0.41511637,0.14574917,0.10806062,inf,inf,inf,inf,1,1,1,1,2,0,2,1,48,1,1,1,0,0
21805276000,21805276000,1036000,41.606704,-86.3556021,-189.95131,339.06342,-366.6874,0.0004925808,0.000107556276,0.0,-2.926011,5.2107224,-5.725566,-5.708708,-0.00020542361,-0.0023216454,0.0030729105,-0.015356674,-0.07949528,-0.012442532,-1.049333,0.079677045,229.40294,366.9271,0.36086664,0.41176227,0.13738923,0.10552002,inf,inf,inf,inf,1,1,1,1,2,0,2,1,48,1,1,1,0,0
21805780000,21805780000,1036000,41.606704,-86.3556021,-191.43063,341.73022,-369.57175,0.0004925808,0.000107556276,0.0,-2.9244444,5.216023,-5.734281,-5.7225895,-0.00020542361,-0.0023216454,0.0030729105,0.036751743,-0.0316112,-0.0068238634,-1.0491517,0.079677045,229.40294,369.81143,0.38511696,0.41616607,0.14912787,0.10886718,inf,inf,inf,inf,1,1,1,1,2,0,2,1,48,1,1,1,0,0
21806276000,21806276000,1036000,41.606704,-86.3556021,-192.87534,344.34882,-372.41522,0.0004925808,0.000107556276,0.0,-2.9184718,5.2206845,-5.7410007,-5.7313232,-0.00020542361,-0.0023216454,0.0030729105,-0.019837795,-0.077966265,-0.15923944,-1.0495048,0.079677045,229.40294,372.6549,0.36521125,0.412546,0.13943237,0.106127635,inf,inf,inf,inf,1,1,1,1,2,0,2,1,48,1,1,1,0,0
21806780000,21806780000,1036000,41.606704,-86.3556021,-194.22734,346.86084,-374.69754,0.0004925808,0.000107556276,0.0,-2.1246397,4.2555647,-2.650404,-2.6524248,-0.00020542361,-0.0023216454,0.0030729105,4.2487397,-4.488213,5.81292,-1.042937,0.079677045,229.40294,374.93723,0.36839044,0.4118509,0.13410376,0.104356244,inf,inf,inf,inf,1,1,1,1,2,0,2,1,48,1,1,1,0,0
21807276000,21807276000,1036000,41.606704,-86.3556021,-194.90094,348.40756,-375.62387,0.0004925808,0.000107556276,0.0,-1.010184,1.8121489,-1.384571,-1.4021455,-0.00020542361,-0.0023216454,0.0030729105,-0.07040608,-4.7517877,-0.9101992,-1.063869,0.079677045,229.40294,375.86356,0.36913022,0.41308805,0.14171898,0.09885022,inf,inf,inf,inf,1,1,1,1,2,0,2,1,48,1,1,1,0,0
21807780000,21807780000,1036000,41.606704,-86.3556021,-195.35674,348.96362,-376.30362,0.0004925808,0.000107556276,0.0,-0.4803326,0.3990074,-1.1011922,-1.09604,-0.00020542361,-0.0023216454,0.0030729105,1.3784201,-1.0996459,0.8112303,-1.0642333,0.079677045,229.40294,376.5433,0.37162507,0.41133675,0.15323815,0.09583786,inf,inf,inf,inf,1,1,1,1,2,0,2,1,48,1,1,1,0,0
21808276000,21808276000,1036000,41.606704,-86.3556021,-195.54594,349.12653,-376.76407,0.0004925808,0.000107556276,0.0,-0.22892031,0.19764447,-0.7496735,-0.72139317,-0.00020542361,-0.0023216454,0.0030729105,0.41278353,-0.7036973,1.7211286,-1.0605807,0.079677045,229.40294,377.00375,0.374725,0.41154614,0.15662745,0.09492336,inf,inf,inf,inf,1,1,1,1,2,0,2,1,48,1,1,1,0,0
21808780000,21808780000,1036000,41.606704,-86.3556021,-195.5735,349.06482,-376.94016,0.0004925808,0.000107556276,0.0,0.28621432,-0.50077105,-0.113628976,-0.08175121,-0.00020542361,-0.0023216454,0.0030729105,1.0779008,-1.650408,0.79563713,-1.0611988,0.079677045,229.40294,377.17984,0.3769556,0.4092616,0.15990171,0.09573546,inf,inf,inf,inf,1,1,1,1,2,0,2,1,48,1,1,1,0,0
21809276000,21809276000,1036000,41.606704,-86.3556021,-195.3669,348.61536,-376.89127,0.0004925808,0.000107556276,0.0,0.6553426,-1.2725677,0.3124062,0.33233875,-0.00020542361,-0.0023216454,0.0030729105,0.7055976,-0.8838168,1.1709032,-1.0631398,0.079677045,229.40294,377.13095,0.35936776,0.40587568,0.1519853,0.09583015,inf,inf,inf,inf,1,1,1,1,2,0,2,1,48,1,1,1,0,0
21809780000,21809780000,1036000,41.606704,-86.3556021,-194.9899,347.86188,-376.62735,0.0004925808,0.000107556276,0.0,0.8825697,-1.5905796,0.7655132,0.76925606,-0.00020542361,-0.0023216454,0.0030729105,0.1261152,-0.30777368,0.6144167,-1.0530127,0.079677045,229.40294,376.86703,0.38308686,0.40743643,0.1653519,0.10096054,inf,inf,inf,inf,1,1,1,1,2,0,2,1,48,1,1,1,0,0
21810276000,21810276000,1036000,41.606704,-86.3556021,-194.54994,347.01764,-376.2471,0.0004925808,0.000107556276,0.0,0.87368387,-1.6230525,0.82519317,0.8181364,-0.00020542361,-0.0023216454,0.0030729105,-0.062525235,0.39954135,0.44363356,-1.0551324,0.079677045,229.40294,376.4868,0.36366498,0.40451944,0.15347305,0.10155665,inf,inf,inf,inf,1,1,1,1,2,0,2,1,48,1,1,1,0,0
21810780000,21810780000,1036000,41.606704,-86.3556021,-194.10378,346.24026,-375.79846,0.0004925808,0.000107556276,0.0,0.7993085,-1.2518686,0.99840534,0.9801636,-0.00020542361,-0.0023216454,0.0030729105,-0.3116835,0.9617631,0.11212278,-1.0451851,0.079677045,229.40294,376.03815,0.36760083,0.4032902,0.15645398,0.10492124,inf,inf,inf,inf,1,1,1,1,2,0,2,1,48,1,1,1,0,0
21811276000,21811276000,1036000,41.606704,-86.3556021,-193.71912,345.6793,-375.31415,0.0004925808,0.000107556276,0.0,0.6060706,-0.93330324,1.0266917,1.0006741,-0.00020542361,-0.0023216454,0.0030729105,-0.5659012,0.558729,-0.017173652,-1.0504334,0.079677045,229.40294,375.55383,0.36908647,0.4045637,0.15769191,0.10797638,inf,inf,inf,inf,1,1,1,1,2,0,2,1,48,1,1,1,0,0
21811780000,21811780000,1036000,41.606704,-86.3556021,-193.41501,345.24933,-374.83295,0.0004925808,0.000107556276,0.0,0.43318248,-0.683372,1.0610204,1.012663,-0.00020542361,-0.0023216454,0.0030729105,-0.4557999,0.51575863,0.08144968,-1.0514823,0.079677045,229.40294,375.07263,0.37240487,0.40678835,0.16013373,0.11117091,inf,inf,inf,inf,1,1,1,1,2,0,2,1,48,1,1,1,0,0
21812276000,21812276000,1036000,41.606704,-86.3556021,-193.20631,344.96896,-374.33978,0.0004925808,0.000107556276,0.0,0.25302687,-0.41036594,1.0753971,1.0173553,-0.00020542361,-0.0023216454,0.0030729105,-0.45308748,0.4748569,-0.6637108,-1.0520787,0.079677045,229.40294,374.57947,0.3745421,0.4061795,0.16072884,0.113459095,inf,inf,inf,inf,1,1,1,1,2,0,2,1,48,1,1,1,0,0
21812780000,21812780000,1036000,41.606704,-86.3556021,-193.07556,344.8142,-373.85196,0.0004925808,0.000107556276,0.0,0.102369115,-0.18726179,1.065108,0.9928296,-0.00020542361,-0.0023216454,0.0030729105,-0.26320022,0.4124404,0.07679307,-1.0523858,0.079677045,229.40294,374.09164,0.3771814,0.40653786,0.16080567,0.11549052,inf,inf,inf,inf,1,1,1,1,2,0,2,1,48,1,1,1,0,0
21813276000,21813276000,1036000,41.606704,-86.3556021,-193.01855,344.7696,-373.37698,0.0004925808,0.000107556276,0.0,-0.0004885829,-0.057797205,1.0796621,0.99403304,-0.00020542361,-0.0023216454,0.0030729105,-0.24008441,0.16736452,0.11797987,-1.0520606,0.079677045,229.40294,373.61667,0.35942912,0.40197957,0.1486916,0.11343349,inf,inf,inf,inf,1,1,1,1,2,0,2,1,48,1,1,1,0,0
21813780000,21813780000,1036000,41.606704,-86.3556021,-193.01671,344.77206,-372.87622,0.0004925808,0.000107556276,0.0,-0.056342684,-0.0070863683,1.0765066,0.9936725,-0.00020542361,-0.0023216454,0.0030729105,-0.062809,-0.021831226,-0.043065347,-1.0511535,0.079677045,229.40294,373.1159,0.38327652,0.4077512,0.15941441,0.11863434,inf,inf,inf,inf,1,1,1,1,2,0,2,1,48,1,1,1,0,0
21814276000,21814276000,1036000,41.606704,-86.3556021,-193.032,344.78122,-372.38763,0.0004925808,0.000107556276,0.0,-0.058530662,-0.004956293,1.0760505,0.99191976,-0.00020542361,-0.0023216454,0.0030729105,0.022584183,-0.026585821,-0.08888176,-1.0501167,0.079677045,229.40294,372.62732,0.36364868,0.40583205,0.1462667,0.1159162,inf,inf,inf,inf,1,1,1,1,2,0,2,1,48,1,1,1,0,0
21814780000,21814780000,1036000,41.606704,-86.3556021,-193.06349,344.79135,-371.88113,0.0004925808,0.000107556276,0.0,-0.053736243,-0.009642122,1.0844545,1.0075353,-0.00020542361,-0.0023216454,0.0030729105,0.008073891,-0.05979675,-0.10309374,-1.0494411,0.079677045,229.40294,372.12082,0.3890346,0.4123226,0.15755402,0.1209576,inf,inf,inf,inf,1,1,1,1,2,0,2,1,48,1,1,1,0,0
21815276000,21815276000,1036000,41.606704,-86.3556021,-193.09938,344.7954,-371.38406,0.0004925808,0.000107556276,0.0,-0.03427538,-0.024411136,1.0621587,0.9886928,-0.00020542361,-0.0023216454,0.0030729105,-0.012565596,-0.09158289,-0.46810976,-1.0492743,0.079677045,229.40294,371.62375,0.36781338,0.40960446,0.1447995,0.117456965,inf,inf,inf,inf,1,1,1,1,2,0,2,1,48,1,1,1,0,0
21815780000,21815780000,1036000,41.606704,-86.3556021,-193.11992,344.79517,-370.8918,0.0004925808,0.000107556276,0.0,-0.0018126324,-0.030483669,1.0674514,0.98719466,-0.00020542361,-0.0023216454,0.0030729105,0.04348216,-0.030681409,0.067654,-1.0491445,0.079677045,229.40294,371.1315,0.3709988,0.41314113,0.14549822,0.11841675,inf,inf,inf,inf,1,1,1,1,2,0,2,1,48,1,1,1,0,0
21816276000,21816276000,1036000,41.606704,-86.3556021,-193.12364,344.78485,-370.39432,0.0004925808,0.000107556276,0.0,0.017102743,-0.0356129,1.067099,0.9930656,-0.00020542361,-0.0023216454,0.0030729105,-0.0017868201,0.021057436,0.032115664,-1.0493436,0.079677045,229.40294,370.634,0.372988,0.4130566,0.14556457,0.11865385,inf,inf,inf,inf,1,1,1,1,2,0,2,1,48,1,1,1,0,0
21816780000,21816780000,1036000,41.606704,-86.3556021,-193.1256,344.77856,-369.89935,0.0004925808,0.000107556276,0.0,0.02406329,-0.030498844,1.064598,0.98880434,-0.00020542361,-0.0023216454,0.0030729105,0.013449801,-0.0019245982,0.029856274,-1.0497054,0.079677045,229.40294,370.13904,0.37542796,0.4162451,0.14610414,0.11926439,inf,inf,inf,inf,1,1,1,1,2,0,2,1,48,1,1,1,0,0
21817276000,21817276000,1036000,41.606704,-86.3556021,-193.12073,344.76413,-369.40576,0.0004925808,0.000107556276,0.0,0.028664513,-0.025941059,1.0580934,0.98750573,-0.00020542361,-0.0023216454,0.0030729105,5.391469e-06,0.055157002,-0.02071454,-1.0496523,0.079677045,229.40294,369.64545,0.37806657,0.41588113,0.14731295,0.1194955,inf,inf,inf,inf,1,1,1,1,2,0,2,1,48,1,1,1,0,0
21817780000,21817780000,1036000,41.606704,-86.3556021,-193.1118,344.74084,-368.89368,0.0004925808,0.000107556276,0.0,0.02480989,-0.02054024,1.0462376,0.9902196,-0.00020542361,-0.0023216454,0.0030729105,-0.076315574,-0.011366656,-0.14012592,-1.0492725,0.079677045,229.40294,369.13336,0.37977478,0.4187473,0.1475301,0.11988676,inf,inf,inf,inf,1,1,1,1,2,0,2,1,48,1,1,1,0,0
21818276000,21818276000,1036000,41.606704,-86.3556021,-193.09981,344.71906,-368.39227,0.0004925808,0.000107556276,0.0,0.01865051,-0.0024289452,1.0259564,0.98161775,-0.00020542361,-0.0023216454,0.0030729105,0.20712791,0.15933682,0.2773664,-1.0493987,0.079677045,229.40294,368.63196,0.3614699,0.41221678,0.13886654,0.11599652,inf,inf,inf,inf,1,1,1,1,2,0,2,1,48,1,1,1,0,0
21818780000,21818780000,1036000,41.606704,-86.3556021,-193.0891,344.7071,-367.89557,0.0004925808,0.000107556276,0.0,0.0036812697,0.014497467,1.0334871,0.98946923,-0.00020542361,-0.0023216454,0.0030729105,-0.070386805,-0.010825572,0.064243495,-1.0497531,0.079677045,229.40294,368.13525,0.38580322,0.42117175,0.15080924,0.12083213,inf,inf,inf,inf,1,1,1,1,2,0,2,1,48,1,1,1,0,0
21819276000,21819276000,1036000,41.606704,-86.3556021,-193.07838,344.70303,-367.39987,0.0004925808,0.000107556276,0.0,-0.0041757994,0.023316374,1.0343709,0.99302435,-0.00020542361,-0.0023216454,0.0030729105,-0.05640976,-0.0023878408,0.08573097,-1.0499254,0.079677045,229.40294,367.63956,0.3656537,0.41409215,0.14075531,0.116677985,inf,inf,inf,inf,1,1,1,1,2,0,2,1,48,1,1,1,0,0
21819780000,21819780000,1036000,41.606704,-86.3556021,-193.06041,344.70178,-366.90396,0.0004925808,0.000107556276,0.0,-0.010936995,0.027320288,1.0420637,0.99563986,-0.00020542361,-0.0023216454,0.0030729105,-0.010101381,0.005723298,0.07837259,-1.0495684,0.079677045,229.40294,367.14365,0.36894163,0.41689715,0.14266834,0.117507115,inf,inf,inf,inf,1,1,1,1,2,0,2,1,48,1,1,1,0,0
21820276000,21820276000,1036000,41.606704,-86.3556021,-193.05159,344.70563,-366.411,0.0004925808,0.000107556276,0.0,-0.028618185,0.025727151,1.0452787,0.99641293,-0.00020542361,-0.0023216454,0.0030729105,-0.034293555,0.0053249933,0.0037634112,-1.0496875,0.079677045,229.40294,366.6507,0.3699892,0.4159038,0.14273494,0.11745525,inf,inf,inf,inf,1,1,1,1,2,0,2,1,48,1,1,1,0,0
21820780000,21820780000,1036000,41.606704,-86.3556021,-193.04866,344.71213,-365.90405,0.0004925808,0.000107556276,0.0,-0.032042973,0.024001637,1.0478685,1.0015188,-0.00020542361,-0.0023216454,0.0030729105,-0.05288349,-0.06102119,-0.0659973,-1.0495918,0.079677045,229.40294,366.14374,0.3727655,0.41849357,0.1441779,0.11815147,inf,inf,inf,inf,1,1,1,1,2,0,2,1,48,1,1,1,0,0
21821276000,21821276000,1036000,41.606704,-86.3556021,-193.04858,344.71228,-365.40088,0.0004925808,0.000107556276,0.0,-0.037399694,0.0158613,1.0452044,1.0060571,-0.00020542361,-0.0023216454,0.0030729105,-0.16578777,-0.05574183,0.6161983,-1.0496161,0.079677045,229.40294,365.64056,0.37579888,0.42052478,0.14605877,0.11886351,inf,inf,inf,inf,1,1,1,1,2,0,2,1,48,1,1,1,0,0
21821780000,21821780000,1036000,41.606704,-86.3556021,-193.05067,344.7135,-364.89822,0.0004925808,0.000107556276,0.0,-0.033826835,0.020353857,1.0344986,0.9952879,-0.00020542361,-0.0023216454,0.0030729105,-0.014099431,0.005288713,0.0817328,-1.0494627,0.079677045,229.40294,365.1379,0.37791538,0.41990206,0.14673516,0.119048126,inf,inf,inf,inf,1,1,1,1,2,0,2,1,48,1,1,1,0,0
21822276000,21822276000,1036000,41.606704,-86.3556021,-193.04514,344.7126,-364.40332,0.0004925808,0.000107556276,0.0,-0.032914102,0.0125658875,1.0401275,1.0013059,-0.00020542361,-0.0023216454,0.0030729105,-0.0066063004,-0.043025617,-0.04979322,-1.0494711,0.079677045,229.40294,364.643,0.36010435,0.4158297,0.13822454,0.11565969,inf,inf,inf,inf,1,1,1,1,2,0,2,1,48,1,1,1,0,0
21822780000,21822780000,1036000,41.606704,-86.3556021,-193.04312,344.713,-363.8917,0.0004925808,0.000107556276,0.0,-0.038099337,0.01354604,1.0332948,1.0013298,-0.00020542361,-0.0023216454,0.0030729105,0.039536525,0.029109756,0.02971285,-1.0493815,0.079677045,229.40294,364.13138,0.3830135,0.42122933,0.14895119,0.11994056,inf,inf,inf,inf,1,1,1,1,2,0,2,1,48,1,1,1,0,0
21823276000,21823276000,1036000,41.606704,-86.3556021,-193.03917,344.71033,-363.39426,0.0004925808,0.000107556276,0.0,-0.038373068,0.011670748,1.026183,0.99597895,-0.00020542361,-0.0023216454,0.0030729105,0.033525262,0.08581625,-0.04815875,-1.0493501,0.079677045,229.40294,363.63394,0.3638067,0.4170626,0.1396775,0.11639995,inf,inf,inf,inf,1,1,1,1,2,0,2,1,48,1,1,1,0,0
21823780000,21823780000,1036000,41.606704,-86.3556021,-193.03642,344.7134,-362.88464,0.0004925808,0.000107556276,0.0,-0.03627612,0.015164159,1.023538,0.9992533,-0.00020542361,-0.0023216454,0.0030729105,0.054953236,0.076230526,-0.09535911,-1.049567,0.079677045,229.40294,363.12433,0.36734426,0.41664588,0.14177251,0.11699346,inf,inf,inf,inf,1,1,1,1,2,0,2,1,48,1,1,1,0,0
21824276000,21824276000,1036000,41.606704,-86.3556021,-193.04152,344.71716,-362.37915,0.0004925808,0.000107556276,0.0,-0.037652504,0.014585215,1.0205073,1.0044417,-0.00020542361,-0.0023216454,0.0030729105,0.034505684,0.1348225,-0.20654598,-1.0492839,0.079677045,229.40294,362.61884,0.3685784,0.41828847,0.14192079,0.117344074,inf,inf,inf,inf,1,1,1,1,2,0,2,1,48,1,1,1,0,0
21824780000,21824780000,1036000,41.606704,-86.3556021,-193.05121,344.72235,-361.86508,0.0004925808,0.000107556276,0.0,-0.036538605,0.016087968,0.99879175,0.9923225,-0.00020542361,-0.0023216454,0.0030729105,-0.13084291,-0.04039324,-0.5169856,-1.0491315,0.079677045,229.40294,362.10477,0.37150127,0.41761982,0.14342804,0.11773607,inf,inf,inf,inf,1,1,1,1,2,0,2,1,48,1,1,1,0,0
21825276000,21825276000,1036000,41.606704,-86.3556021,-193.06256,344.72812,-361.3688,0.0004925808,0.000107556276,0.0,-0.029341422,0.02013137,1.0002687,0.9950908,-0.00020542361,-0.0023216454,0.0030729105,-0.037960067,0.009166271,0.10553833,-1.0493969,0.079677045,229.40294,361.6085,0.37338123,0.41933578,0.14412773,0.11822935,inf,inf,inf,inf,1,1,1,1,2,0,2,1,48,1,1,1,0,0
21825780000,21825780000,1036000,41.606704,-86.3556021,-193.07301,344.72812,-360.86414,0.0004925808,0.000107556276,0.0,-0.01640656,0.009588485,1.0013251,0.99731636,-0.00020542361,-0.0023216454,0.0030729105,0.04355358,0.09214339,0.026019225,-1.0491725,0.079677045,229.40294,361.10382,0.37575993,0.42157543,0.14500856,0.11883892,inf,inf,inf,inf,1,1,1,1,2,0,2,1,48,1,1,1,0,0
21826276000,21826276000,1036000,41.606704,-86.3556021,-193.0802,344.72055,-360.3623,0.0004925808,0.000107556276,0.0,-0.010078499,0.010014152,0.9965488,0.9984013,-0.00020542361,-0.0023216454,0.0030729105,0.026019452,0.0044142934,-0.07405138,-1.0492997,0.079677045,229.40294,360.602,0.358581,0.41451144,0.13704191,0.11521473,inf,inf,inf,inf,1,1,1,1,2,0,2,1,48,1,1,1,0,0
21826780000,21826780000,1036000,41.606704,-86.3556021,-193.08656,344.71713,-359.85068,0.0004925808,0.000107556276,0.0,-0.002629221,0.011367156,0.98554265,0.9941787,-0.00020542361,-0.0023216454,0.0030729105,0.049070094,0.04349865,-0.068144,-1.0494537,0.079677045,229.40294,360.09036,0.38138044,0.42265615,0.14774893,0.11985492,inf,inf,inf,inf,1,1,1,1,2,0,2,1,48,1,1,1,0,0
21827276000,21827276000,1036000,41.606704,-86.3556021,-193.08902,344.70343,-359.34424,0.0004925808,0.000107556276,0.0,-5.131971e-05,0.016773766,0.9823025,1.0008806,-0.00020542361,-0.0023216454,0.0030729105,-0.034014784,0.015224216,-0.10144251,-1.0492492,0.079677045,229.40294,359.58392,0.36254627,0.41538453,0.13866998,0.11598806,inf,inf,inf,inf,1,1,1,1,2,0,2,1,48,1,1,1,0,0
21827780000,21827780000,1036000,41.606704,-86.3556021,-193.09369,344.69403,-358.8392,0.0004925808,0.000107556276,0.0,0.0019837834,0.031159561,0.9700616,0.9907196,-0.00020542361,-0.0023216454,0.0030729105,0.18952669,0.11729583,0.28545496,-1.0492703,0.079677045,229.40294,359.0789,0.38697082,0.42386627,0.1503605,0.120858714,inf,inf,inf,inf,1,1,1,1,2,0,2,1,48,1,1,1,0,0
21828276000,21828276000,1036000,41.606704,-86.3556021,-193.08794,344.68735,-358.35284,0.0004925808,0.000107556276,0.0,0.006407204,0.031118145,0.9788379,0.9924586,-0.00020542361,-0.0023216454,0.0030729105,-0.0064746817,0.074531294,0.036614884,-1.0494946,0.079677045,229.40294,358.59253,0.36660182,0.4163349,0.14027259,0.116769984,inf,inf,inf,inf,1,1,1,1,2,0,2,1,48,1,1,1,0,0
21828780000,21828780000,1036000,41.606704,-86.3556021,-193.08446,344.68347,-357.8481,0.0004925808,0.000107556276,0.0,0.0023426292,0.039400723,0.9798922,0.9947438,-0.00020542361,-0.0023216454,0.0030729105,0.03840443,0.0037009683,0.0011761971,-1.0491874,0.079677045,229.40294,358.0878,0.3698058,0.41870284,0.14202191,0.11760525,inf,inf,inf,inf,1,1,1,1,2,0,2,1,48,1,1,1,0,0
21829276000,21829276000,1036000,41.606704,-86.3556021,-193.07944,344.68478,-357.34897,0.0004925808,0.000107556276,0.0,0.0005769897,0.04189592,0.97848076,0.9965284,-0.00020542361,-0.0023216454,0.0030729105,0.013638311,0.071780786,-0.012056964,-1.0493581,0.079677045,229.40294,357.58865,0.3718878,0.41752854,0.14291131,0.11782749,inf,inf,inf,inf,1,1,1,1,2,0,2,1,48,1,1,1,0,0
21829780000,21829780000,1036000,41.606704,-86.3556021,-193.08246,344.67877,-356.84402,0.0004925808,0.000107556276,0.0,-0.0064291623,0.040984124,0.98224455,1.0014962,-0.00020542361,-0.0023216454,0.0030729105,0.026548607,0.07377666,-0.07857202,-1.0495166,0.079677045,229.40294,357.0837,0.37438115,0.41992658,0.14393996,0.11850715,inf,inf,inf,inf,1,1,1,1,2,0,2,1,48,1,1,1,0,0
21830276000,21830276000,1036000,41.606704,-86.3556021,-193.08357,344.68124,-356.34723,0.0004925808,0.000107556276,0.0,-0.0024529637,0.042142693,0.9778246,0.9970361,-0.00020542361,-0.0023216454,0.0030729105,-0.060714345,0.0018469635,-0.20513596,-1.0493199,0.079677045,229.40294,356.5869,0.37715054,0.42180416,0.14548141,0.11919222,inf,inf,inf,inf,1,1,1,1,2,0,2,1,48,1,1,1,0,0
21830780000,21830780000,1036000,41.606704,-86.3556021,-193.08365,344.68692,-355.8386,0.0004925808,0.000107556276,0.0,0.00013522808,0.04051843,0.982626,1.0065799,-0.00020542361,-0.0023216454,0.0030729105,-0.121625945,-0.1080481,0.5818325,-1.0494128,0.079677045,229.40294,356.07828,0.37900048,0.42111018,0.14587805,0.119362466,inf,inf,inf,inf,1,1,1,1,2,0,2,1,48,1,1,1,0,0
21831276000,21831276000,1036000,41.606704,-86.3556021,-193.08017,344.6876,-355.34967,0.0004925808,0.000107556276,0.0,0.0003850062,0.037401382,0.974142,0.99309963,-0.00020542361,-0.0023216454,0.0030729105,-0.025343098,0.054185767,0.08402851,-1.049345,0.079677045,229.40294,355.58936,0.36095396,0.41408303,0.13748789,0.115625285,inf,inf,inf,inf,1,1,1,1,2,0,2,1,48,1,1,1,0,0
21831780000,21831780000,1036000,41.606704,-86.3556021,-193.0805,344.69623,-354.85547,0.0004925808,0.000107556276,0.0,-0.0077018873,0.0369058,0.984838,0.9957799,-0.00020542361,-0.0023216454,0.0030729105,-0.008046292,0.02361036,0.10645848,-1.0496478,0.079677045,229.40294,355.09515,0.3852403,0.4226713,0.14911929,0.12055068,inf,inf,inf,inf,1,1,1,1,2,0,2,1,48,1,1,1,0,0
21832276000,21832276000,1036000,41.606704,-86.3556021,-193.07874,344.69937,-354.36182,0.0004925808,0.000107556276,0.0,-0.011986401,0.023359025,0.99021995,0.99894893,-0.00020542361,-0.0023216454,0.0030729105,-0.04789829,-0.060137358,-0.0025071835,-1.0497059,0.079677045,229.40294,354.6015,0.36529067,0.41549036,0.13934201,0.116557725,inf,inf,inf,inf,1,1,1,1,2,0,2,1,48,1,1,1,0,0
21832780000,21832780000,1036000,41.606704,-86.3556021,-193.07516,344.69974,-353.86926,0.0004925808,0.000107556276,0.0,-0.012268934,0.023499228,1.0003208,0.9998818,-0.00020542361,-0.0023216454,0.0030729105,-0.039181814,0.05861309,0.080924414,-1.0498058,0.079677045,229.40294,354.10895,0.3686314,0.41813082,0.1412379,0.11746821,inf,inf,inf,inf,1,1,1,1,2,0,2,1,48,1,1,1,0,0
21833276000,21833276000,1036000,41.606704,-86.3556021,-193.06982,344.70624,-353.36746,0.0004925808,0.000107556276,0.0,-0.012364495,0.022247175,1.0015982,1.0049919,-0.00020542361,-0.0023216454,0.0030729105,-0.07271602,-0.016536096,-0.1754817,-1.0497082,0.079677045,229.40294,353.60715,0.3697257,0.4169168,0.14130045,0.117458895,inf,inf,inf,inf,1,1,1,1,2,0,2,1,48,1,1,1,0,0
21833780000,21833780000,1036000,41.606704,-86.3556021,-193.06131,344.71317,-352.86588,0.0004925808,0.000107556276,0.0,-0.014150088,0.019324867,1.0015393,1.0039705,-0.00020542361,-0.0023216454,0.0030729105,0.026360266,0.07621411,-0.09072857,-1.049554,0.079677045,229.40294,353.10556,0.37253067,0.41941664,0.14275467,0.118203424,inf,inf,inf,inf,1,1,1,1,2,0,2,1,48,1,1,1,0,0
21834276000,21834276000,1036000,41.606704,-86.3556021,-193.05344,344.71506,-352.37756,0.0004925808,0.000107556276,0.0,-0.020250876,0.014935048,1.0038754,0.99957335,-0.00020542361,-0.0023216454,0.0030729105,-0.06366461,-0.012858566,0.045212854,-1.0496205,0.079677045,229.40294,352.61725,0.3755733,0.41836593,0.14456362,0.11858974,inf,inf,inf,inf,1,1,1,1,2,0,2,1,48,1,1,1,0,0
21834780000,21834780000,1036000,41.606704,-86.3556021,-193.05476,344.7212,-351.87656,0.0004925808,0.000107556276,0.0,-0.028510299,0.014699596,1.0067124,0.9994097,-0.00020542361,-0.0023216454,0.0030729105,-0.016173476,0.0023622394,0.07569411,-1.0492531,0.079677045,229.40294,352.11624,0.37756303,0.420729,0.14507724,0.11913661,inf,inf,inf,inf,1,1,1,1,2,0,2,1,48,1,1,1,0,0
21835276000,21835276000,1036000,41.606704,-86.3556021,-193.06093,344.7212,-351.38947,0.0004925808,0.000107556276,0.0,-0.02702154,0.00692765,1.0140911,1.0001493,-0.00020542361,-0.0023216454,0.0030729105,0.0050044092,0.049305715,0.041389775,-1.0491437,0.079677045,229.40294,351.62915,0.3598174,0.41661307,0.13678312,0.11573834,inf,inf,inf,inf,1,1,1,1,2,0,2,1,48,1,1,1,0,0
21835780000,21835780000,1036000,41.606704,-86.3556021,-193.06549,344.72128,-350.88187,0.0004925808,0.000107556276,0.0,-0.023379235,0.007995182,1.0131391,1.0021864,-0.00020542361,-0.0023216454,0.0030729105,0.08511044,0.0012068382,-0.0084192185,-1.0495458,0.079677045,229.40294,351.12155,0.38260224,0.42194158,0.1473456,0.12002325,inf,inf,inf,inf,1,1,1,1,2,0,2,1,48,1,1,1,0,0
21836276000,21836276000,1036000,41.606704,-86.3556021,-193.06369,344.72156,-350.39252,0.0004925808,0.000107556276,0.0,-0.018106984,0.013092852,1.0167449,0.9996986,-0.00020542361,-0.0023216454,0.0030729105,0.046423733,-0.040132545,-0.12056442,-1.049525,0.079677045,229.40294,350.6322,0.3635482,0.41485247,0.13831115,0.11615489,inf,inf,inf,inf,1,1,1,1,2,0,2,1,48,1,1,1,0,0
21836780000,21836780000,1036000,41.606704,-86.3556021,-193.06227,344.72366,-349.8879,0.0004925808,0.000107556276,0.0,-0.018278923,0.013726648,1.0178813,1.0016962,-0.00020542361,-0.0023216454,0.0030729105,0.0059001264,0.016407166,-0.11036551,-1.0492604,0.079677045,229.40294,350.1276,0.36707476,0.41747254,0.14044312,0.117114104,inf,inf,inf,inf,1,1,1,1,2,0,2,1,48,1,1,1,0,0
21837276000,21837276000,1036000,41.606704,-86.3556021,-193.06567,344.72644,-349.38882,0.0004925808,0.000107556276,0.0,-0.024605474,0.010053743,1.011949,0.9979913,-0.00020542361,-0.0023216454,0.0030729105,0.022753121,-0.03338366,-0.49550742,-1.0493776,0.079677045,229.40294,349.6285,0.36831847,0.41631964,0.14066938,0.11715915,inf,inf,inf,inf,1,1,1,1,2,0,2,1,48,1,1,1,0,0
21837780000,21837780000,1036000,41.606704,-86.3556021,-193.06445,344.71774,-348.87955,0.0004925808,0.000107556276,0.0,-0.018694172,0.009309741,1.0151055,1.0060159,-0.00020542361,-0.0023216454,0.0030729105,-0.057623,0.054193337,0.037927117,-1.0494877,0.079677045,229.40294,349.11923,0.3712314,0.41879475,0.1421811,0.11792885,inf,inf,inf,inf,1,1,1,1,2,0,2,1,48,1,1,1,0,0
21838276000,21838276000,1036000,41.606704,-86.3556021,-193.06328,344.71158,-348.3705,0.0004925808,0.000107556276,0.0,-0.02026291,0.017059863,1.0015936,1.003267,-0.00020542361,-0.0023216454,0.0030729105,-0.009075035,0.058992617,-0.0004424414,-1.049426,0.079677045,229.40294,348.6102,0.3731097,0.42056432,0.14300536,0.11841674,inf,inf,inf,inf,1,1,1,1,2,0,2,1,48,1,1,1,0,0
21838780000,21838780000,1036000,41.606704,-86.3556021,-193.05559,344.703,-347.85886,0.0004925808,0.000107556276,0.0,-0.020554146,0.017487148,0.98602897,0.99405485,-0.00020542361,-0.0023216454,0.0030729105,-0.015020888,0.037498046,-0.03162498,-1.0492115,0.079677045,229.40294,348.09854,0.37548813,0.4198174,0.14403692,0.11866191,inf,inf,inf,inf,1,1,1,1,2,0,2,1,48,1,1,1,0,0
21839276000,21839276000,1036000,41.606704,-86.3556021,-193.04958,344.696,-347.36987,0.0004925808,0.000107556276,0.0,-0.02913357,0.024406636,0.9924359,0.9951895,-0.00020542361,-0.0023216454,0.0030729105,-0.033911254,0.0011527844,-0.043667912,-1.0494277,0.079677045,229.40294,347.60956,0.3584022,0.4157101,0.13624899,0.115361504,inf,inf,inf,inf,1,1,1,1,2,0,2,1,48,1,1,1,0,0
21839780000,21839780000,1036000,41.606704,-86.3556021,-193.05193,344.69595,-346.8655,0.0004925808,0.000107556276,0.0,-0.031779967,0.028903171,0.99746513,1.0016242,-0.00020542361,-0.0023216454,0.0030729105,-0.082034566,-0.008382863,-0.10731729,-1.0493515,0.079677045,229.40294,347.1052,0.38109615,0.4208894,0.14679177,0.11964812,inf,inf,inf,inf,1,1,1,1,2,0,2,1,48,1,1,1,0,0
21840276000,21840276000,1036000,41.606704,-86.3556021,-193.05116,344.6882,-346.36963,0.0004925808,0.000107556276,0.0,-0.026681708,0.030838545,0.9960708,1.0008988,-0.00020542361,-0.0023216454,0.0030729105,0.104707025,0.05820438,0.19747943,-1.0494317,0.079677045,229.40294,346.6093,0.36241922,0.41663653,0.13794531,0.116141476,inf,inf,inf,inf,1,1,1,1,2,0,2,1,48,1,1,1,0,0
21840780000,21840780000,1036000,41.606704,-86.3556021,-193.05695,344.68344,-345.85767,0.0004925808,0.000107556276,0.0,-0.033122085,0.03368141,0.98893106,1.0001792,-0.00020542361,-0.0023216454,0.0030729105,0.023081783,-0.0110121425,0.08240615,-1.049424,0.079677045,229.40294,346.09735,0.38680613,0.42202383,0.14960258,0.12063736,inf,inf,inf,inf,1,1,1,1,2,0,2,1,48,1,1,1,0,0
21841276000,21841276000,1036000,41.606704,-86.3556021,-193.06555,344.68488,-345.35632,0.0004925808,0.000107556276,0.0,-0.032754432,0.038700752,0.98225284,0.9987363,-0.00020542361,-0.0023216454,0.0030729105,-0.03200771,0.04366602,0.044439856,-1.0494155,0.079677045,229.40294,345.596,0.3665047,0.41761017,0.13971883,0.116928436,inf,inf,inf,inf,1,1,1,1,2,0,2,1,48,1,1,1,0,0
21841780000,21841780000,1036000,41.606704,-86.3556021,-193.0686,344.68564,-344.8472,0.0004925808,0.000107556276,0.0,-0.028076494,0.03681786,0.9742693,0.99557424,-0.00020542361,-0.0023216454,0.0030729105,-0.04588914,0.04679145,-0.0046911347,-1.0497115,0.079677045,229.40294,345.08688,0.36969513,0.41717336,0.14153485,0.117454186,inf,inf,inf,inf,1,1,1,1,2,0,2,1,48,1,1,1,0,0
21842276000,21842276000,1036000,41.606704,-86.3556021,-193.07051,344.69495,-344.36404,0.0004925808,0.000107556276,0.0,-0.026216358,0.037728578,0.97910374,0.99065465,-0.00020542361,-0.0023216454,0.0030729105,0.08329895,0.031427495,0.08296215,-1.0497068,0.079677045,229.40294,344.60373,0.3717713,0.41907147,0.14243886,0.11803413,inf,inf,inf,inf,1,1,1,1,2,0,2,1,48,1,1,1,0,0
21842780000,21842780000,1036000,41.606704,-86.3556021,-193.0585,344.70258,-343.86755,0.0004925808,0.000107556276,0.0,-0.02162567,0.03174707,0.994596,0.99942136,-0.00020542361,-0.0023216454,0.0030729105,-0.032442536,0.042710923,-0.18066359,-1.0496551,0.079677045,229.40294,344.10724,0.37425435,0.41845468,0.14341827,0.118342556,inf,inf,inf,inf,1,1,1,1,2,0,2,1,48,1,1,1,0,0
21843276000,21843276000,1036000,41.606704,-86.3556021,-193.04063,344.71146,-343.37875,0.0004925808,0.000107556276,0.0,-0.026954694,0.023330377,1.0066025,1.0047005,-0.00020542361,-0.0023216454,0.0030729105,-0.1856776,-0.041210912,0.6568291,-1.049859,0.079677045,229.40294,343.61844,0.37701008,0.4203063,0.14494313,0.119013265,inf,inf,inf,inf,1,1,1,1,2,0,2,1,48,1,1,1,0,0
21843780000,21843780000,1036000,41.606704,-86.3556021,-193.03166,344.71573,-342.8739,0.0004925808,0.000107556276,0.0,-0.036910295,0.01727395,1.0046649,1.0033836,-0.00020542361,-0.0023216454,0.0030729105,-0.07402199,0.0042302334,0.032321487,-1.0495172,0.079677045,229.40294,343.1136,0.3788576,0.41959944,0.14539193,0.11917251,inf,inf,inf,inf,1,1,1,1,2,0,2,1,48,1,1,1,0,0
21844276000,21844276000,1036000,41.606704,-86.3556021,-193.02287,344.715,-342.3697,0.0004925808,0.000107556276,0.0,-0.043882046,0.011234256,0.9958042,1.0012195,-0.00020542361,-0.0023216454,0.0030729105,-0.012864362,0.02621934,-0.012909125,-1.0496205,0.079677045,229.40294,342.60938,0.3608633,0.41563064,0.1371086,0.11580295,inf,inf,inf,inf,1,1,1,1,2,0,2,1,48,1,1,1,0,0
21844780000,21844780000,1036000,41.606704,-86.3556021,-193.02608,344.71704,-341.86603,0.0004925808,0.000107556276,0.0,-0.053077374,0.008307855,0.99243146,0.9980809,-0.00020542361,-0.0023216454,0.0030729105,-0.026991146,-0.040988043,0.020383792,-1.0494385,0.079677045,229.40294,342.1057,0.3850888,0.42118979,0.14876325,0.1203602,inf,inf,inf,inf,1,1,1,1,2,0,2,1,48,1,1,1,0,0
21845276000,21845276000,1036000,41.606704,-86.3556021,-193.03761,344.7169,-341.3788,0.0004925808,0.000107556276,0.0,-0.05014871,0.007817444,0.9962973,0.99455744,-0.00020542361,-0.0023216454,0.0030729105,0.008540295,-0.0055120946,-0.031302743,-1.0492052,0.079677045,229.40294,341.6185,0.36519748,0.4169483,0.13910866,0.1167067,inf,inf,inf,inf,1,1,1,1,2,0,2,1,48,1,1,1,0,0
21845780000,21845780000,1036000,41.606704,-86.3556021,-193.0417,344.71808,-340.87903,0.0004925808,0.000107556276,0.0,-0.04111597,0.009593137,1.0040338,0.9990988,-0.00020542361,-0.0023216454,0.0030729105,-0.0078037805,-0.0022033767,-0.0756486,-1.0493753,0.079677045,229.40294,341.1187,0.36847442,0.4166234,0.14092393,0.117263354,inf,inf,inf,inf,1,1,1,1,2,0,2,1,48,1,1,1,0,0
21846276000,21846276000,1036000,41.606704,-86.3556021,-193.04996,344.72293,-340.38824,0.0004925808,0.000107556276,0.0,-0.03683732,0.009835512,1.0119141,1.002941,-0.00020542361,-0.0023216454,0.0030729105,0.10467631,-0.011645804,-0.11291547,-1.0494514,0.079677045,229.40294,340.62793,0.36958385,0.41548723,0.14103025,0.11727626,inf,inf,inf,inf,1,1,1,1,2,0,2,1,48,1,1,1,0,0
21846780000,21846780000,1036000,41.606704,-86.3556021,-193.05664,344.73285,-339.88266,0.0004925808,0.000107556276,0.0,-0.029236404,0.010336988,1.0086765,1.0012625,-0.00020542361,-0.0023216454,0.0030729105,0.00795686,-0.001437739,-0.4701596,-1.049236,0.079677045,229.40294,340.12234,0.37239364,0.4180472,0.14247479,0.11803935,inf,inf,inf,inf,1,1,1,1,2,0,2,1,48,1,1,1,0,0
21847276000,21847276000,1036000,41.606704,-86.3556021,-193.06244,344.73474,-339.3794,0.0004925808,0.000107556276,0.0,-0.028486393,-0.0023308925,1.0031499,1.0018928,-0.00020542361,-0.0023216454,0.0030729105,-0.06660222,0.015115806,-0.054651,-1.0491968,0.079677045,229.40294,339.61908,0.3754418,0.42007086,0.14433277,0.118797906,inf,inf,inf,inf,1,1,1,1,2,0,2,1,48,1,1,1,0,0
21847780000,21847780000,1036000,41.606704,-86.3556021,-193.0677,344.73474,-338.88333,0.0004925808,0.000107556276,0.0,-0.020386284,-0.0016885026,0.9987875,0.9910687,-0.00020542361,-0.0023216454,0.0030729105,0.058715012,0.042302754,0.1025432,-1.0492738,0.079677045,229.40294,339.12302,0.37744492,0.41935948,0.14490905,0.1189661,inf,inf,inf,inf,1,1,1,1,2,0,2,1,48,1,1,1,0,0
21848276000,21848276000,1036000,41.606704,-86.3556021,-193.068,344.73285,-338.38727,0.0004925808,0.000107556276,0.0,-0.014827506,0.00022971614,1.0092031,1.0028425,-0.00020542361,-0.0023216454,0.0030729105,0.039757345,0.0021639229,-0.016640935,-1.0497327,0.079677045,229.40294,338.62695,0.35984483,0.41526908,0.1367565,0.11560024,inf,inf,inf,inf,1,1,1,1,2,0,2,1,48,1,1,1,0,0
21848780000,21848780000,1036000,41.606704,-86.3556021,-193.07161,344.7301,-337.88293,0.0004925808,0.000107556276,0.0,-0.0134006,0.0025780257,1.0046034,0.99814475,-0.00020542361,-0.0023216454,0.0030729105,-0.06497462,0.0035187977,-0.026753234,-1.0495231,0.079677045,229.40294,338.12262,0.38262543,0.4234704,0.14726879,0.12020063,inf,inf,inf,inf,1,1,1,1,2,0,2,1,48,1,1,1,0,0
21849276000,21849276000,1036000,41.606704,-86.3556021,-193.07265,344.7175,-337.39203,0.0004925808,0.000107556276,0.0,-0.008263524,0.005244622,1.0082484,0.9972925,-0.00020542361,-0.0023216454,0.0030729105,-0.060585573,-0.061784323,-0.11988735,-1.0495867,0.079677045,229.40294,337.6317,0.36356547,0.4160691,0.13824992,0.1162567,inf,inf,inf,inf,1,1,1,1,2,0,2,1,48,1,1,1,0,0
21849780000,21849780000,1036000,41.606704,-86.3556021,-193.07759,344.70767,-336.89655,0.0004925808,0.000107556276,0.0,-0.008484105,0.0119122835,1.0188646,1.0007999,-0.00020542361,-0.0023216454,0.0030729105,-0.08110696,-0.022344735,0.8190869,-1.0494602,0.079677045,229.40294,337.13623,0.36708367,0.4184263,0.14031915,0.117159836,inf,inf,inf,inf,1,1,1,1,2,0,2,1,48,1,1,1,0,0
21850276000,21850276000,1036000,41.606704,-86.3556021,-193.08133,344.7068,-336.40027,0.0004925808,0.000107556276,0.0,-0.0028066093,0.023066355,1.021125,1.0025156,-0.00020542361,-0.0023216454,0.0030729105,-0.0071834084,-0.013075018,0.044346724,-1.049706,0.079677045,229.40294,336.63995,0.36832115,0.41694516,0.14052495,0.11714383,inf,inf,inf,inf,1,1,1,1,2,0,2,1,48,1,1,1,0,0
21850780000,21850780000,1036000,41.606704,-86.3556021,-193.08339,344.7026,-335.89963,0.0004925808,0.000107556276,0.0,-0.0066566756,0.026738018,1.018874,0.99744,-0.00020542361,-0.0023216454,0.0030729105,0.0014491191,0.025024367,0.047408912,-1.0496321,0.079677045,229.40294,336.1393,0.3712249,0.41927287,0.1420244,0.11790501,inf,inf,inf,inf,1,1,1,1,2,0,2,1,48,1,1,1,0,0
