timestamp,timestamp_sample,ref_timestamp,ref_lat,ref_lon,x,y,z,delta_xy[0],delta_xy[1],delta_z,vx,vy,vz,z_deriv,delta_vxy[0],delta_vxy[1],delta_vz,ax,ay,az,heading,delta_heading,ref_alt,dist_bottom,eph,epv,evh,evv,vxy_max,vz_max,hagl_min,hagl_max,xy_valid,z_valid,v_xy_valid,v_z_valid,xy_reset_counter,z_reset_counter,vxy_reset_counter,vz_reset_counter,heading_reset_counter,heading_good_for_control,xy_global,z_global,dist_bottom_valid,dist_bottom_sensor_bitfield
21726768000,21726768000,1036000,41.606704,-86.3556021,-0.667001,-1.1546484,0.13719808,0.0005788274,3.0122314e-05,0.0,-0.0047457255,-0.0045503434,-0.0016278713,-0.0019973416,-0.00041116442,-0.0022498725,0.0029786755,-0.048475817,0.042208865,0.047996577,-1.0709188,0.06484155,229.4085,0.10024227,0.04909167,0.055374794,0.012848754,0.009192893,inf,inf,inf,inf,1,1,1,1,2,0,2,1,47,0,1,1,1,0
21727272000,21727272000,1036000,41.606704,-86.3556021,-0.66596943,-1.1548998,0.13720548,0.0005788274,3.0122314e-05,0.0,-0.0032506785,-0.0014907884,-0.0021228567,-0.002021204,-0.00041116442,-0.0022498725,0.0029786755,-0.017072782,0.04498559,-0.07223996,-1.0707957,0.06484155,229.4085,0.10027218,0.049062885,0.055339817,0.018939119,0.013704621,inf,inf,inf,inf,1,1,1,1,2,0,2,1,47,0,1,1,1,0
21727776000,21727776000,1036000,41.606704,-86.3556021,-0.665645,-1.1549321,0.13769437,0.0005788274,3.0122314e-05,0.0,-0.0030064324,-0.0028031836,-0.00044443758,-5.518266e-05,-0.00041116442,-0.0022498725,0.0029786755,-0.024254452,-0.033297215,0.016095052,-1.0706806,0.06484155,229.4085,0.100038126,0.049050268,0.055291153,0.009917709,0.007064397,inf,inf,inf,inf,1,1,1,1,2,0,2,1,47,0,1,1,1,0
21728272000,21728272000,1036000,41.606704,-86.3556021,-0.6652372,-1.1540624,0.13790277,0.0005788274,3.0122314e-05,0.0,-0.0021091816,-0.0017486922,-0.00041588407,-0.00017715644,-0.00041116442,-0.0022498725,0.0029786755,-0.060978815,-0.0619834,0.014537882,-1.0706892,0.06484155,229.4085,0.1,0.04900643,0.055249255,0.01639641,0.011805774,inf,inf,inf,inf,1,1,1,1,2,0,2,1,47,0,1,1,1,0
21728776000,21728776000,1036000,41.606704,-86.3556021,-0.66583294,-1.1546997,0.13802049,0.0005788274,3.0122314e-05,0.0,-0.005878598,-0.0044264835,-0.00013612298,6.576913e-05,-0.00041116442,-0.0022498725,0.0029786755,-0.041225586,-0.0052606356,0.0511966,-1.0706859,0.06484155,229.4085,0.10001457,0.048981667,0.055202074,0.0042136176,0.0029834518,inf,inf,inf,inf,1,1,1,1,2,0,2,1,47,0,1,1,1,0
21729272000,21729272000,1036000,41.606704,-86.3556021,-0.6655563,-1.1546047,0.13914959,0.0005788274,3.0122314e-05,0.0,-0.00060872553,-0.0031411343,0.0024065801,0.0023340795,-0.00041116442,-0.0022498725,0.0029786755,0.015462673,-0.04289887,0.032180857,-1.0709239,0.06484155,229.4085,0.1,0.048959002,0.055163335,0.013494185,0.009664714,inf,inf,inf,inf,1,1,1,1,2,0,2,1,47,0,1,1,1,0
21729776000,21729776000,1036000,41.606704,-86.3556021,-0.6653703,-1.1547785,0.13846554,0.0005788274,3.0122314e-05,0.0,-0.0006772828,-0.005468493,-0.0016591607,-0.0021799584,-0.00041116442,-0.0022498725,0.0029786755,0.048249673,-0.037818596,0.032920327,-1.0710614,0.06484155,229.4085,0.1,0.04896419,0.055137817,0.019429367,0.014068207,inf,inf,inf,inf,1,1,1,1,2,0,2,1,47,0,1,1,1,0
21730272000,21730272000,1036000,41.606704,-86.3556021,-0.6645408,-1.1550003,0.13715933,0.0005788274,3.0122314e-05,0.0,0.0022568486,-0.0026405528,-0.0009200301,-0.00056452595,-0.00041116442,-0.0022498725,0.0029786755,0.0076183733,-0.008356026,0.012586761,-1.0710903,0.06484155,229.4085,0.10087724,0.048917606,0.05508064,0.009918239,0.007064394,inf,inf,inf,inf,1,1,1,1,2,0,2,1,47,0,1,1,1,0
21730768000,21730768000,1036000,41.606704,-86.3556021,-0.66404533,-1.1528766,0.1376108,0.0005788274,3.0122314e-05,0.0,0.0033878745,0.00094270444,-0.0012652198,-0.0009116566,-0.00041116442,-0.0022498725,0.0029786755,-0.01503131,-0.024274407,0.01319864,-1.0706967,0.06484155,229.4085,0.10018122,0.04890376,0.055046327,0.016402755,0.011807379,inf,inf,inf,inf,1,1,1,1,2,0,2,1,47,0,1,1,1,0
21731272000,21731272000,1036000,41.606704,-86.3556021,-0.6638318,-1.1537802,0.13866246,0.0005788274,3.0122314e-05,0.0,0.005571916,-0.0019197683,0.0018574168,0.00210363,-0.00041116442,-0.0022498725,0.0029786755,0.07312432,-0.07577274,-0.19695428,-1.0706882,0.06484155,229.4085,0.1,0.048850294,0.054999895,0.0042135427,0.0029834528,inf,inf,inf,inf,1,1,1,1,2,0,2,1,47,0,1,1,1,0
21731776000,21731776000,1036000,41.606704,-86.3556021,-0.66454595,-1.1541095,0.138369,0.0005788274,3.0122314e-05,0.0,0.0007958327,0.0005545954,-0.0026179717,-0.0028541568,-0.00041116442,-0.0022498725,0.0029786755,0.07355326,-0.052623652,-0.0053309533,-1.0710087,0.06484155,229.4085,0.1,0.0488586,0.054955665,0.014113565,0.01011983,inf,inf,inf,inf,1,1,1,1,2,0,2,1,47,0,1,1,1,0
21732272000,21732272000,1036000,41.606704,-86.3556021,-0.66547585,-1.1520745,0.13897265,0.0005788274,3.0122314e-05,0.0,0.00064168207,0.005455227,0.007614853,0.0074691838,-0.00041116442,-0.0022498725,0.0029786755,-0.13917018,0.0148179,0.18356733,-1.0713683,0.06484155,229.4085,0.1,0.04883387,0.054930247,0.01941665,0.014064716,inf,inf,inf,inf,1,1,1,1,2,0,2,1,47,0,1,1,1,0
21732776000,21732776000,1036000,41.606704,-86.3556021,-0.66678745,-1.1516125,0.14067371,0.0005788274,3.0122314e-05,0.0,-0.004132096,0.0057759644,0.007908186,0.006001741,-0.00041116442,-0.0022498725,0.0029786755,-0.09616827,0.009797,-0.07841835,-1.0706458,0.06484155,229.4085,0.1,0.048788168,0.05487398,0.010717115,0.0076424223,inf,inf,inf,inf,1,1,1,1,2,0,2,1,47,0,1,1,1,0
21733272000,21733272000,1036000,41.606704,-86.3556021,-0.6662509,-1.1517575,0.14076914,0.0005788274,3.0122314e-05,0.0,0.0005523558,0.0045602135,0.006984456,0.0044441465,-0.00041116442,-0.0022498725,0.0029786755,0.04284797,-0.04995513,-0.11701981,-1.0702083,0.06484155,229.4085,0.1,0.049039457,0.05496877,0.028154604,0.020744601,inf,inf,inf,inf,1,1,1,1,2,0,2,1,47,0,1,1,1,0
21733776000,21733776000,1036000,41.606704,-86.3556021,-0.6661257,-1.1490778,0.14523737,0.0005788274,3.0122314e-05,0.0,0.00057737756,0.010285723,0.016077898,0.014589183,-0.00041116442,-0.0022498725,0.0029786755,0.025119998,0.063828066,-0.02807385,-1.0691135,0.06484155,229.4085,0.1,0.053696938,0.057380565,0.04913195,0.037203997,inf,inf,inf,inf,1,1,1,1,2,0,2,1,47,0,1,1,1,0
21734272000,21734272000,1036000,41.606704,-86.3556021,-0.6731734,-1.1420088,0.10550809,0.0005788274,3.0122314e-05,0.0,-0.031870898,0.01882857,-0.40612635,-0.40692922,-0.00041116442,-0.0022498725,0.0029786755,-0.045352194,0.024035579,-2.1496358,-1.0708194,0.06484155,229.4085,0.14330843,0.068512715,0.06611995,0.068426296,0.051709976,inf,inf,inf,inf,1,1,1,1,2,0,2,1,47,0,1,1,1,0
21734776000,21734776000,1036000,41.606704,-86.3556021,-0.6891063,-1.1355927,-0.3567276,0.0005788274,3.0122314e-05,0.0,-0.019761758,0.0034120406,-1.4225891,-1.4218313,-0.00041116442,-0.0022498725,0.0029786755,0.060090903,0.0038357072,-2.1487892,-1.0706074,0.06484155,229.4085,0.6055441,0.09552644,0.08390961,0.08913536,0.06529936,inf,inf,inf,inf,1,1,1,1,2,0,2,1,47,0,1,1,1,0
21735272000,21735272000,1036000,41.606704,-86.3556021,-0.6929561,-1.1391228,-1.0677403,0.0005788274,3.0122314e-05,0.0,-0.002097094,-0.012840209,-1.1884347,-1.1870688,-0.00041116442,-0.0022498725,0.0029786755,-0.03983921,-0.035301518,-0.107426256,-1.0701652,0.06484155,229.4085,1.3165568,0.12776308,0.108466014,0.10145448,0.076511905,inf,inf,inf,inf,1,1,1,1,2,0,2,1,47,0,1,1,1,0
21735776000,21735776000,1036000,41.606704,-86.3556021,-0.6896056,-1.147196,-1.5365664,0.0005788274,3.0122314e-05,0.0,0.002152176,-0.011201619,-0.7031541,-0.7057882,-0.00041116442,-0.0022498725,0.0029786755,0.036907513,0.07774168,0.78433275,-1.0112692,0.0758657,229.4085,1.7853829,0.17000517,0.14131908,0.11039956,0.08867799,inf,inf,inf,inf,1,1,1,1,2,0,2,1,48,0,1,1,1,0
21736272000,21736272000,1036000,41.606704,-86.3556021,-0.6828369,-1.155913,-1.8224231,0.0005788274,3.0122314e-05,0.0,-0.000105518826,-0.007883111,-0.4239664,-0.4347302,-0.00041116442,-0.0022498725,0.0029786755,-0.031697627,-0.049691983,0.47837096,-1.0279002,0.0758657,229.4085,2.0712397,0.19826806,0.17268844,0.114664845,0.09570829,inf,inf,inf,inf,1,1,1,1,2,0,2,1,48,0,1,1,1,0
21736776000,21736776000,1036000,41.606704,-86.3556021,-0.6739432,-1.1581516,-2.001315,0.0005788274,3.0122314e-05,0.0,-0.0028023662,-0.0012289354,-0.2593467,-0.2744224,-0.00041116442,-0.0022498725,0.0029786755,-0.007984544,0.061912466,0.24647258,-1.0370584,0.0758657,229.4085,2.2501316,0.22996148,0.20761953,0.13074847,0.10299875,inf,inf,inf,inf,1,1,1,1,2,0,2,1,48,1,1,1,1,0
21737272000,21737272000,1036000,41.606704,-86.3556021,-0.6733958,-1.1582786,-2.1137037,0.0005788274,3.0122314e-05,0.0,-0.014552807,-0.0003061273,-0.15944658,-0.1769509,-0.00041116442,-0.0022498725,0.0029786755,-0.006544471,0.0091657275,0.15442346,-1.042019,0.0758657,229.4085,2.3625202,0.2575913,0.24091521,0.14466323,0.108191416,inf,inf,inf,inf,1,1,1,1,2,0,2,1,48,1,1,1,1,0
21737768000,21737768000,1036000,41.606704,-86.3556021,-0.67128134,-1.1590613,-2.1170876,0.0005788274,3.0122314e-05,0.0,-0.010851626,-0.002739529,0.08951926,0.07388949,-0.00041116442,-0.0022498725,0.0029786755,0.040913574,0.018153904,-0.27491063,-1.0461687,0.0758657,229.4085,2.365904,0.2829417,0.27156985,0.15527001,0.11181095,inf,inf,inf,inf,1,1,1,1,2,0,2,1,48,1,1,1,1,0
21738272000,21738272000,1036000,41.606704,-86.3556021,-0.6714663,-1.1426312,-2.125121,0.0005788274,3.0122314e-05,0.0,-0.014583229,0.083568566,-0.14111517,-0.1555753,-0.00041116442,-0.0022498725,0.0029786755,0.09033232,0.39388883,-0.32514432,-1.0518539,0.0758657,229.4085,2.3739376,0.30564645,0.30065593,0.16294652,0.11450662,inf,inf,inf,inf,1,1,1,1,2,0,2,1,48,1,1,1,0,0
21738768000,21738768000,1036000,41.606704,-86.3556021,-0.67179847,-1.0091894,-2.271662,0.0005788274,3.0122314e-05,0.0,-0.013943164,0.526966,-0.43754518,-0.44645676,-0.00041116442,-0.0022498725,0.0029786755,-0.0749744,1.2691401,-0.5353857,-1.0508717,0.0758657,229.4085,2.5204785,0.3237049,0.3254567,0.16656631,0.115894414,inf,inf,inf,inf,1,1,1,1,2,0,2,1,48,1,1,1,0,0
21739272000,21739272000,1036000,41.606704,-86.3556021,-0.66535074,-0.55423045,-2.561366,0.0005788274,3.0122314e-05,0.0,-0.12484879,1.3466231,-0.7546745,-0.77031446,-0.00041116442,-0.0022498725,0.0029786755,-0.6953632,2.1496954,-2.277947,-1.0466259,0.0758657,229.4085,2.8101826,0.3212609,0.337802,0.15726496,0.11281621,inf,inf,inf,inf,1,1,1,1,2,0,2,1,48,1,1,1,0,0
21739776000,21739776000,1036000,41.606704,-86.3556021,-0.92860365,0.3802943,-3.1675267,0.0005788274,3.0122314e-05,0.0,-1.0513247,2.3120527,-1.6016226,-1.6112826,-0.00041116442,-0.0022498725,0.0029786755,-1.4417592,1.441479,-1.6183332,-1.0510559,0.0758657,229.4085,3.4163432,0.35458672,0.36338323,0.18062912,0.116327085,inf,inf,inf,inf,1,1,1,1,2,0,2,1,48,1,1,1,0,0
21740272000,21740272000,1036000,41.606704,-86.3556021,-1.5080516,1.6887419,-4.13901,0.0005788274,3.0122314e-05,0.0,-1.4918469,2.8572347,-2.3605897,-2.3546276,-0.00041116442,-0.0022498725,0.0029786755,-0.87457263,0.7147404,-1.6629705,-1.0537648,0.0758657,229.4085,4.3878264,0.3424754,0.3695346,0.1641026,0.11262982,inf,inf,inf,inf,1,1,1,1,2,0,2,1,48,1,1,1,0,0
21740768000,21740768000,1036000,41.606704,-86.3556021,-2.2764735,3.2343469,-5.467911,0.0005788274,3.0122314e-05,0.0,-1.7303644,3.2336018,-3.0147786,-3.0053782,-0.00041116442,-0.0022498725,0.0029786755,-0.41614744,0.6490765,-0.9667836,-1.0520195,0.0758657,229.4085,5.7167273,0.3740446,0.39085093,0.17551605,0.116476186,inf,inf,inf,inf,1,1,1,1,2,0,2,1,48,1,1,1,0,0
21741272000,21741272000,1036000,41.606704,-86.3556021,-3.1773317,4.981664,-7.1093545,0.0005788274,3.0122314e-05,0.0,-1.9086415,3.5466914,-3.5401475,-3.5237093,-0.00041116442,-0.0022498725,0.0029786755,-0.35358182,0.5477195,-0.8696951,-1.0514013,0.0758657,229.4085,7.358171,0.3567565,0.39069965,0.15511361,0.11252255,inf,inf,inf,inf,1,1,1,1,2,0,2,1,48,1,1,1,0,0
21741776000,21741776000,1036000,41.606704,-86.3556021,-4.1740146,6.86775,-8.991618,0.0005788274,3.0122314e-05,0.0,-2.0668077,3.8074374,-3.9567432,-3.939432,-0.00041116442,-0.0022498725,0.0029786755,-0.24324095,0.36550248,-0.6710291,-1.0499153,0.0758657,229.4085,9.240435,0.36337504,0.39996582,0.15241161,0.113166414,inf,inf,inf,inf,1,1,1,1,2,0,2,1,48,1,1,1,0,0
21742272000,21742272000,1036000,41.606704,-86.3556021,-5.2337027,8.828826,-11.043062,0.0005788274,3.0122314e-05,0.0,-2.1939855,4.0205965,-4.2888117,-4.282963,-0.00041116442,-0.0022498725,0.0029786755,-0.2943606,0.33579558,-0.64814556,-1.0486834,0.0758657,229.4085,11.291879,0.36782968,0.40437174,0.14971448,0.11329546,inf,inf,inf,inf,1,1,1,1,2,0,2,1,48,1,1,1,0,0
21742768000,21742768000,1036000,41.606704,-86.3556021,-6.3603144,10.890951,-13.247375,0.0005788274,3.0122314e-05,0.0,-2.3177657,4.198965,-4.556831,-4.5609436,-0.00041116442,-0.0022498725,0.0029786755,-0.23676047,0.29688513,-0.5867994,-1.0481572,0.0758657,229.4085,13.496191,0.37127995,0.40734956,0.14791408,0.11352224,inf,inf,inf,inf,1,1,1,1,2,0,2,1,48,1,1,1,0,0
21743272000,21743272000,1036000,41.606704,-86.3556021,-7.5544577,13.063429,-15.613449,0.0005788274,3.0122314e-05,0.0,-2.4110196,4.3530173,-4.771578,-4.7843175,-0.00041116442,-0.0022498725,0.0029786755,-0.2090732,0.19863677,-0.52207243,-1.0478601,0.0758657,229.4085,15.862266,0.37593043,0.4129617,0.14823411,0.11468148,inf,inf,inf,inf,1,1,1,1,2,0,2,1,48,1,1,1,0,0
21743776000,21743776000,1036000,41.606704,-86.3556021,-8.789633,15.307122,-18.073967,0.0005788274,3.0122314e-05,0.0,-2.486457,4.4800215,-4.941546,-4.95527,-0.00041116442,-0.0022498725,0.0029786755,-0.2689755,0.2865513,-0.37787113,-1.0478536,0.0758657,229.4085,18.322784,0.37837029,0.41474327,0.1478025,0.11516209,inf,inf,inf,inf,1,1,1,1,2,0,2,1,48,1,1,1,0,0
21744272000,21744272000,1036000,41.606704,-86.3556021,-10.046134,17.573704,-20.575495,0.0005788274,3.0122314e-05,0.0,-2.5445845,4.594823,-5.0812154,-5.101251,-0.00041116442,-0.0022498725,0.0029786755,-0.03889639,0.25288758,-0.22830632,-1.0476818,0.0758657,229.4085,20.824312,0.36033255,0.4090733,0.1388755,0.11211105,inf,inf,inf,inf,1,1,1,1,2,0,2,1,48,1,1,1,0,0
21744776000,21744776000,1036000,41.606704,-86.3556021,-11.351822,19.930822,-23.18224,0.0005788274,3.0122314e-05,0.0,-2.603806,4.695049,-5.1941295,-5.217596,-0.00041116442,-0.0022498725,0.0029786755,-0.10888561,0.10263978,-0.13250583,-1.047937,0.0758657,229.4085,23.431057,0.38501486,0.4195051,0.1512595,0.117049165,inf,inf,inf,inf,1,1,1,1,2,0,2,1,48,1,1,1,0,0
21745272000,21745272000,1036000,41.606704,-86.3556021,-12.668031,22.29153,-25.791155,0.0005788274,3.0122314e-05,0.0,-2.653627,4.778946,-5.2800956,-5.302281,-0.00041116442,-0.0022498725,0.0029786755,-0.05101206,0.14394806,-0.13501295,-1.0479903,0.0758657,229.4085,26.039972,0.36510456,0.4129694,0.14162102,0.113616705,inf,inf,inf,inf,1,1,1,1,2,0,2,1,48,1,1,1,0,0
21745776000,21745776000,1036000,41.606704,-86.3556021,-14.030876,24.72402,-28.479252,0.0005788274,3.0122314e-05,0.0,-2.7027526,4.847502,-5.3557806,-5.3736243,-0.00041116442,-0.0022498725,0.0029786755,-0.029366612,0.108022235,-0.1609596,-1.0483009,0.0758657,229.4085,28.72807,0.36843735,0.41628373,0.14397104,0.1146949,inf,inf,inf,inf,1,1,1,1,2,0,2,1,48,1,1,1,0,0
21746272000,21746272000,1036000,41.606704,-86.3556021,-15.392648,27.152937,-31.148926,0.0005788274,3.0122314e-05,0.0,-2.744119,4.9046144,-5.4076824,-5.418253,-0.00041116442,-0.0022498725,0.0029786755,-0.057161063,0.11347534,-0.24372157,-1.048056,0.0758657,229.4085,31.397743,0.36952013,0.41561309,0.14432655,0.11479815,inf,inf,inf,inf,1,1,1,1,2,0,2,1,48,1,1,1,0,0
21746776000,21746776000,1036000,41.606704,-86.3556021,-16.796288,29.647612,-33.895454,0.0005788274,3.0122314e-05,0.0,-2.776659,4.954049,-5.458535,-5.4706173,-0.00041116442,-0.0022498725,0.0029786755,0.06926481,0.1664788,-0.1818147,-1.047492,0.0758657,229.4085,34.14427,0.37223074,0.4184197,0.14603288,0.11554754,inf,inf,inf,inf,1,1,1,1,2,0,2,1,48,1,1,1,0,0
21747272000,21747272000,1036000,41.606704,-86.3556021,-18.191284,32.129105,-36.626965,0.0005788274,3.0122314e-05,0.0,-2.8003156,5.004173,-5.509017,-5.525119,-0.00041116442,-0.0022498725,0.0029786755,-0.023805834,0.014930889,-0.06321451,-1.0475858,0.0758657,229.4085,36.875782,0.37519935,0.417681,0.1481415,0.115869544,inf,inf,inf,inf,1,1,1,1,2,0,2,1,48,1,1,1,0,0
21747776000,21747776000,1036000,41.606704,-86.3556021,-19.622389,34.6765,-39.41985,0.0005788274,3.0122314e-05,0.0,-2.8258734,5.04517,-5.5460463,-5.5586123,-0.00041116442,-0.0022498725,0.0029786755,-0.07791902,0.09648744,-0.054302685,-1.0469444,0.0758657,229.4085,39.668667,0.37728196,0.41731396,0.14889142,0.11596863,inf,inf,inf,inf,1,1,1,1,2,0,2,1,48,1,1,1,0,0
21748272000,21748272000,1036000,41.606704,-86.3556021,-21.048466,37.196445,-42.183395,0.0005788274,3.0122314e-05,0.0,-2.8442972,5.075054,-5.5836406,-5.5934777,-0.00041116442,-0.0022498725,0.0029786755,0.010282195,0.02855946,-0.10248373,-1.0477096,0.0758657,229.4085,42.432213,0.3596081,0.41369158,0.1402497,0.112722,inf,inf,inf,inf,1,1,1,1,2,0,2,1,48,1,1,1,0,0
21748776000,21748776000,1036000,41.606704,-86.3556021,-22.504263,39.767185,-44.995796,0.0005788274,3.0122314e-05,0.0,-2.86438,5.0992775,-5.6074753,-5.6066856,-0.00041116442,-0.0022498725,0.0029786755,-0.041340988,0.0842074,-0.016929645,-1.0474268,0.0758657,229.4085,45.244614,0.3824773,0.4190875,0.15141153,0.11647215,inf,inf,inf,inf,1,1,1,1,2,0,2,1,48,1,1,1,0,0
21749272000,21749272000,1036000,41.606704,-86.3556021,-23.950104,42.313618,-47.76904,0.0005788274,3.0122314e-05,0.0,-2.8837445,5.1219635,-5.629742,-5.6195755,-0.00041116442,-0.0022498725,0.0029786755,-0.01089376,0.010665276,-0.10220433,-1.0468938,0.0758657,229.4085,48.017857,0.36325845,0.41510195,0.1416231,0.11291299,inf,inf,inf,inf,1,1,1,1,2,0,2,1,48,1,1,1,0,0
21749776000,21749776000,1036000,41.606704,-86.3556021,-25.42198,44.920635,-50.594265,0.0005788274,3.0122314e-05,0.0,-2.894627,5.146273,-5.640762,-5.6232038,-0.00041116442,-0.0022498725,0.0029786755,-0.08606015,0.029362485,-0.18882197,-1.0467561,0.0758657,229.4085,50.843082,0.36678323,0.41475675,0.14373405,0.113125585,inf,inf,inf,inf,1,1,1,1,2,0,2,1,48,1,1,1,0,0
21750272000,21750272000,1036000,41.606704,-86.3556021,-26.875742,47.491066,-53.388992,0.0005788274,3.0122314e-05,0.0,-2.9106889,5.168215,-5.657034,-5.6408253,-0.00041116442,-0.0022498725,0.0029786755,0.15823509,0.015101052,0.2427296,-1.0466572,0.0758657,229.4085,53.63781,0.36814067,0.41657442,0.1438795,0.11317671,inf,inf,inf,inf,1,1,1,1,2,0,2,1,48,1,1,1,0,0
21750776000,21750776000,1036000,41.606704,-86.3556021,-28.363201,50.1177,-56.221867,0.0005788274,3.0122314e-05,0.0,-2.9211988,5.190572,-5.6566963,-5.633997,-0.00041116442,-0.0022498725,0.0029786755,-0.011209434,0.13637826,0.09883188,-1.046681,0.0758657,229.4085,56.470684,0.37118128,0.41610128,0.1453392,0.11319809,inf,inf,inf,inf,1,1,1,1,2,0,2,1,48,1,1,1,0,0
21751272000,21751272000,1036000,41.606704,-86.3556021,-29.824577,52.70828,-59.024178,0.0005788274,3.0122314e-05,0.0,-2.9314897,5.205936,-5.658545,-5.6423535,-0.00041116442,-0.0022498725,0.0029786755,-0.027752293,0.05442875,0.05691026,-1.0473936,0.0758657,229.4085,59.272995,0.37309957,0.41787896,0.1459214,0.11328644,inf,inf,inf,inf,1,1,1,1,2,0,2,1,48,1,1,1,0,0
21751776000,21751776000,1036000,41.606704,-86.3556021,-31.31204,55.339302,-61.869877,0.0005788274,3.0122314e-05,0.0,-2.9398787,5.2159257,-5.659785,-5.645786,-0.00041116442,-0.0022498725,0.0029786755,-0.03816237,0.015608563,-0.0829958,-1.0473306,0.0758657,229.4085,62.118694,0.37545308,0.41711935,0.14670025,0.11309447,inf,inf,inf,inf,1,1,1,1,2,0,2,1,48,1,1,1,0,0
21752272000,21752272000,1036000,41.606704,-86.3556021,-32.7789,57.934277,-64.677055,0.0005788274,3.0122314e-05,0.0,-2.9532647,5.2238517,-5.661762,-5.6538315,-0.00041116442,-0.0022498725,0.0029786755,-0.10663041,-0.016359942,-0.07124903,-1.0470563,0.0758657,229.4085,64.92587,0.35819638,0.41331604,0.13834691,0.10985425,inf,inf,inf,inf,1,1,1,1,2,0,2,1,48,1,1,1,0,0
21752768000,21752768000,1036000,41.606704,-86.3556021,-34.24953,60.534977,-67.48426,0.0005788274,3.0122314e-05,0.0,-2.9633186,5.2316937,-5.658812,-5.6531916,-0.00041116442,-0.0022498725,0.0029786755,-0.13097523,-0.036850214,-0.08828478,-1.0469813,0.0758657,229.4085,67.73308,0.38037014,0.4203413,0.14892584,0.11332638,inf,inf,inf,inf,1,1,1,1,2,0,2,1,48,1,1,1,0,0
21753272000,21753272000,1036000,41.606704,-86.3556021,-35.74175,63.18716,-70.34,0.0005788274,3.0122314e-05,0.0,-2.9766245,5.241358,-5.659373,-5.660424,-0.00041116442,-0.0022498725,0.0029786755,-0.032994542,-0.17177005,0.15904002,-1.0472637,0.0758657,229.4085,70.58881,0.36234537,0.41393352,0.1399415,0.10979443,inf,inf,inf,inf,1,1,1,1,2,0,2,1,48,1,1,1,0,0
21753776000,21753776000,1036000,41.606704,-86.3556021,-37.23518,65.836426,-73.203766,0.0005788274,3.0122314e-05,0.0,-2.9814484,5.2468605,-5.652751,-5.663042,-0.00041116442,-0.0022498725,0.0029786755,-0.07038008,0.055035375,0.09467073,-1.0470854,0.0758657,229.4085,73.45258,0.38693076,0.42167684,0.15183921,0.11353329,inf,inf,inf,inf,1,1,1,1,2,0,2,1,48,1,1,1,0,0
21754272000,21754272000,1036000,41.606704,-86.3556021,-38.70652,68.44378,-76.014496,0.0005788274,3.0122314e-05,0.0,-2.9840033,5.2576175,-5.643703,-5.6565547,-0.00041116442,-0.0022498725,0.0029786755,-0.02063351,0.10378277,0.0635925,-1.0476012,0.0758657,229.4085,76.26331,0.3663692,0.41450015,0.14135663,0.10973815,inf,inf,inf,inf,1,1,1,1,2,0,2,1,48,1,1,1,0,0
21754768000,21754768000,1036000,41.606704,-86.3556021,-40.17318,71.05108,-78.81833,0.0005788274,3.0122314e-05,0.0,-2.983863,5.262936,-5.6310663,-5.643715,-0.00041116442,-0.0022498725,0.0029786755,-0.049594734,0.025976852,0.079466894,-1.0476836,0.0758657,229.4085,79.06715,0.3688436,0.41598457,0.14269595,0.10994233,inf,inf,inf,inf,1,1,1,1,2,0,2,1,48,1,1,1,0,0
21755272000,21755272000,1036000,41.606704,-86.3556021,-41.671356,73.70049,-81.67118,0.0005788274,3.0122314e-05,0.0,-2.9935808,5.2664766,-5.624744,-5.645579,-0.00041116442,-0.0022498725,0.0029786755,-0.05180833,0.028747318,0.044965122,-1.0479232,0.0758657,229.4085,81.92,0.371653,0.41797546,0.14393428,0.11023997,inf,inf,inf,inf,1,1,1,1,2,0,2,1,48,1,1,1,0,0
21755768000,21755768000,1036000,41.606704,-86.3556021,-43.150803,76.31015,-84.48546,0.0005788274,3.0122314e-05,0.0,-3.018216,5.2656784,-5.6295953,-5.659956,-0.00041116442,-0.0022498725,0.0029786755,-0.1885405,0.05875634,-0.13180082,-1.0478115,0.0758657,229.4085,84.734276,0.37352005,0.41642073,0.14469093,0.11002436,inf,inf,inf,inf,1,1,1,1,2,0,2,1,48,1,1,1,0,0
21756272000,21756272000,1036000,41.606704,-86.3556021,-44.654335,78.96346,-87.34498,0.0005788274,3.0122314e-05,0.0,-3.015422,5.2715163,-5.6201367,-5.6562214,-0.00041116442,-0.0022498725,0.0029786755,-0.11232905,0.110771455,-0.07034751,-1.0482502,0.0758657,229.4085,87.593796,0.3770931,0.41851878,0.14660254,0.11046888,inf,inf,inf,inf,1,1,1,1,2,0,2,1,48,1,1,1,0,0
21756776000,21756776000,1036000,41.606704,-86.3556021,-46.15948,81.61916,-90.19704,0.0005788274,3.0122314e-05,0.0,-3.015797,5.2737517,-5.6140885,-5.6514015,-0.00041116442,-0.0022498725,0.0029786755,0.006428118,-0.05744499,0.043488976,-1.0479707,0.0758657,229.4085,90.445854,0.37887275,0.41755646,0.14686708,0.11031958,inf,inf,inf,inf,1,1,1,1,2,0,2,1,48,1,1,1,0,0
21757272000,21757272000,1036000,41.606704,-86.3556021,-47.63538,84.23747,-93.01005,0.0005788274,3.0122314e-05,0.0,-3.008833,5.2764416,-5.611651,-5.657108,-0.00041116442,-0.0022498725,0.0029786755,-0.052188788,-0.020165745,-0.053001627,-1.048245,0.0758657,229.4085,93.258865,0.36069232,0.4138448,0.1381801,0.10739494,inf,inf,inf,inf,1,1,1,1,2,0,2,1,48,1,1,1,0,0
21757776000,21757776000,1036000,41.606704,-86.3556021,-49.138493,86.89546,-95.876144,0.0005788274,3.0122314e-05,0.0,-3.010704,5.2697444,-5.612069,-5.666963,-0.00041116442,-0.0022498725,0.0029786755,0.013174523,0.06294854,-0.017150369,-1.0484244,0.0758657,229.4085,96.12496,0.385019,0.41840777,0.15001826,0.11074105,inf,inf,inf,inf,1,1,1,1,2,0,2,1,48,1,1,1,0,0
21758272000,21758272000,1036000,41.606704,-86.3556021,-50.61646,89.5148,-98.68833,0.0005788274,3.0122314e-05,0.0,-3.0043695,5.26817,-5.6050453,-5.6620812,-0.00041116442,-0.0022498725,0.0029786755,-0.050324455,0.01533359,0.11817265,-1.0481833,0.0758657,229.4085,98.93715,0.3651241,0.41458517,0.14016819,0.107717216,inf,inf,inf,inf,1,1,1,1,2,0,2,1,48,1,1,1,0,0
21758776000,21758776000,1036000,41.606704,-86.3556021,-52.12426,92.182076,-101.55169,0.0005788274,3.0122314e-05,0.0,-3.000808,5.2671223,-5.601556,-5.6663675,-0.00041116442,-0.0022498725,0.0029786755,0.007522971,-0.04369944,-0.0023088118,-1.0484397,0.0758657,229.4085,101.80051,0.36847976,0.41390565,0.142026,0.107932925,inf,inf,inf,inf,1,1,1,1,2,0,2,1,48,1,1,1,0,0
21759272000,21759272000,1036000,41.606704,-86.3556021,-53.60916,94.80984,-104.35532,0.0005788274,3.0122314e-05,0.0,-2.995655,5.275515,-5.5877466,-5.64753,-0.00041116442,-0.0022498725,0.0029786755,0.03591675,0.1215013,-0.058480598,-1.048699,0.0758657,229.4085,104.60414,0.36951417,0.4154206,0.141997,0.10806905,inf,inf,inf,inf,1,1,1,1,2,0,2,1,48,1,1,1,0,0
21759776000,21759776000,1036000,41.606704,-86.3556021,-55.114796,97.4789,-107.213234,0.0005788274,3.0122314e-05,0.0,-2.9972208,5.2876105,-5.589264,-5.657272,-0.00041116442,-0.0022498725,0.0029786755,0.09143517,-0.054301664,0.27802673,-1.0482596,0.0758657,229.4085,107.46205,0.37227026,0.41478583,0.14334935,0.10822206,inf,inf,inf,inf,1,1,1,1,2,0,2,1,48,1,1,1,0,0
21760272000,21760272000,1036000,41.606704,-86.3556021,-56.604115,100.11248,-110.033295,0.0005788274,3.0122314e-05,0.0,-2.9944975,5.2984443,-5.5871205,-5.665864,-0.00041116442,-0.0022498725,0.0029786755,0.035077453,-0.04012503,0.0800974,-1.0485233,0.0758657,229.4085,110.28211,0.37527266,0.41370124,0.14512849,0.108373486,inf,inf,inf,inf,1,1,1,1,2,0,2,1,48,1,1,1,0,0
21760776000,21760776000,1036000,41.606704,-86.3556021,-58.118507,102.78949,-112.89572,0.0005788274,3.0122314e-05,0.0,-2.9871204,5.306354,-5.5926757,-5.6764483,-0.00041116442,-0.0022498725,0.0029786755,0.0502592,0.12525576,0.09286396,-1.0485684,0.0758657,229.4085,113.14454,0.37735265,0.4159043,0.14572272,0.108744085,inf,inf,inf,inf,1,1,1,1,2,0,2,1,48,1,1,1,0,0
21761272000,21761272000,1036000,41.606704,-86.3556021,-59.60666,105.41854,-115.72587,0.0005788274,3.0122314e-05,0.0,-2.986296,5.308458,-5.6025133,-5.6939726,-0.00041116442,-0.0022498725,0.0029786755,-0.010277056,0.0036989958,-0.016300071,-1.0484811,0.0758657,229.4085,115.974686,0.3596639,0.40968496,0.13744347,0.10578143,inf,inf,inf,inf,1,1,1,1,2,0,2,1,48,1,1,1,0,0
21761768000,21761768000,1036000,41.606704,-86.3556021,-61.093018,108.049355,-118.544464,0.0005788274,3.0122314e-05,0.0,-2.9868586,5.312891,-5.600533,-5.6850815,-0.00041116442,-0.0022498725,0.0029786755,-0.07381975,0.019601509,-0.03106805,-1.0486819,0.0758657,229.4085,118.79328,0.38173455,0.41640052,0.14770935,0.109113574,inf,inf,inf,inf,1,1,1,1,2,0,2,1,48,1,1,1,0,0
21762272000,21762272000,1036000,41.606704,-86.3556021,-62.608875,110.72257,-121.41434,0.0005788274,3.0122314e-05,0.0,-2.984516,5.3154564,-5.606693,-5.6931777,-0.00041116442,-0.0022498725,0.0029786755,-0.014329806,0.12863258,-0.09002356,-1.0487452,0.0758657,229.4085,121.663155,0.3633431,0.41337186,0.13886093,0.10647356,inf,inf,inf,inf,1,1,1,1,2,0,2,1,48,1,1,1,0,0
21762768000,21762768000,1036000,41.606704,-86.3556021,-64.09711,113.34926,-124.25315,0.0005788274,3.0122314e-05,0.0,-2.9810548,5.3179827,-5.6163692,-5.7116632,-0.00041116442,-0.0022498725,0.0029786755,0.06258797,-0.14607899,0.2934997,-1.0486709,0.0758657,229.4085,124.50197,0.36619774,0.41218922,0.1406606,0.10665757,inf,inf,inf,inf,1,1,1,1,2,0,2,1,48,1,1,1,0,0
21763272000,21763272000,1036000,41.606704,-86.3556021,-65.6006,116.02625,-127.117966,0.0005788274,3.0122314e-05,0.0,-2.973545,5.3186374,-5.6159396,-5.6990247,-0.00041116442,-0.0022498725,0.0029786755,0.06273269,-0.10803114,0.06685958,-1.0486357,0.0758657,229.4085,127.36678,0.3681866,0.4143314,0.14124666,0.107064344,inf,inf,inf,inf,1,1,1,1,2,0,2,1,48,1,1,1,0,0
21763776000,21763776000,1036000,41.606704,-86.3556021,-67.10998,118.71135,-129.99275,0.0005788274,3.0122314e-05,0.0,-2.970535,5.3245344,-5.6253986,-5.707652,-0.00041116442,-0.0022498725,0.0029786755,0.0064398064,0.00048127468,-0.026206547,-1.0488307,0.0758657,229.4085,130.24156,0.37115973,0.41361848,0.14278494,0.10728915,inf,inf,inf,inf,1,1,1,1,2,0,2,1,48,1,1,1,0,0
21764272000,21764272000,1036000,41.606704,-86.3556021,-68.59349,121.35282,-132.82333,0.0005788274,3.0122314e-05,0.0,-2.9751356,5.3322864,-5.635558,-5.7149334,-0.00041116442,-0.0022498725,0.0029786755,0.011808392,0.027059318,-0.007290456,-1.0489368,0.0758657,229.4085,133.07214,0.3730178,0.4151815,0.1435068,0.10763121,inf,inf,inf,inf,1,1,1,1,2,0,2,1,48,1,1,1,0,0
21764776000,21764776000,1036000,41.606704,-86.3556021,-70.10286,124.040016,-135.70164,0.0005788274,3.0122314e-05,0.0,-2.9711037,5.331984,-5.6403008,-5.7163405,-0.00041116442,-0.0022498725,0.0029786755,0.020620933,0.038229294,-0.012680951,-1.0489558,0.0758657,229.4085,135.95045,0.3753134,0.41446906,0.14441678,0.107772514,inf,inf,inf,inf,1,1,1,1,2,0,2,1,48,1,1,1,0,0
21765272000,21765272000,1036000,41.606704,-86.3556021,-71.589134,126.68543,-138.52846,0.0005788274,3.0122314e-05,0.0,-2.9788022,5.327396,-5.6389933,-5.708732,-0.00041116442,-0.0022498725,0.0029786755,-0.09430247,0.004373627,-0.019652832,-1.0487336,0.0758657,229.4085,138.77727,0.35812202,0.41120678,0.13646527,0.105273,inf,inf,inf,inf,1,1,1,1,2,0,2,1,48,1,1,1,0,0
21765776000,21765776000,1036000,41.606704,-86.3556021,-73.09433,129.36952,-141.40193,0.0005788274,3.0122314e-05,0.0,-2.9805355,5.3158097,-5.641966,-5.706969,-0.00041116442,-0.0022498725,0.0029786755,-0.07443069,0.01917493,-0.09527995,-1.0486338,0.0758657,229.4085,141.65074,0.38085324,0.41549864,0.14717728,0.10846119,inf,inf,inf,inf,1,1,1,1,2,0,2,1,48,1,1,1,0,0
21766272000,21766272000,1036000,41.606704,-86.3556021,-74.58561,132.01157,-144.23436,0.0005788274,3.0122314e-05,0.0,-2.9836638,5.3150563,-5.646462,-5.7104,-0.00041116442,-0.0022498725,0.0029786755,-0.037951034,0.054606378,0.047416363,-1.0491103,0.0758657,229.4085,144.48317,0.3621961,0.41197678,0.13826752,0.10581042,inf,inf,inf,inf,1,1,1,1,2,0,2,1,48,1,1,1,0,0
21766768000,21766768000,1036000,41.606704,-86.3556021,-76.07855,134.65479,-147.06375,0.0005788274,3.0122314e-05,0.0,-2.9921896,5.316877,-5.647519,-5.708498,-0.00041116442,-0.0022498725,0.0029786755,-0.044237845,-0.016875923,0.013369072,-1.0488409,0.0758657,229.4085,147.31256,0.38579643,0.41879982,0.14959012,0.109336324,inf,inf,inf,inf,1,1,1,1,2,0,2,1,48,1,1,1,0,0
21767272000,21767272000,1036000,41.606704,-86.3556021,-77.587074,137.33678,-149.94005,0.0005788274,3.0122314e-05,0.0,-2.9875221,5.3137693,-5.653784,-5.7118154,-0.00041116442,-0.0022498725,0.0029786755,0.0012609677,0.024722997,0.01883314,-1.0489751,0.0758657,229.4085,150.18886,0.36616313,0.41279474,0.13989629,0.10635323,inf,inf,inf,inf,1,1,1,1,2,0,2,1,48,1,1,1,0,0
21767776000,21767776000,1036000,41.606704,-86.3556021,-79.09321,140.0204,-152.82085,0.0005788274,3.0122314e-05,0.0,-2.9813423,5.3158884,-5.652956,-5.7136283,-0.00041116442,-0.0022498725,0.0029786755,-0.04481891,-0.015605828,0.023357505,-1.0488253,0.0758657,229.4085,153.06966,0.36929822,0.41495892,0.14167072,0.10697531,inf,inf,inf,inf,1,1,1,1,2,0,2,1,48,1,1,1,0,0
21768272000,21768272000,1036000,41.606704,-86.3556021,-80.57813,142.66464,-155.65105,0.0005788274,3.0122314e-05,0.0,-2.9804528,5.314039,-5.6533237,-5.7106624,-0.00041116442,-0.0022498725,0.0029786755,0.049605004,-0.0877465,0.024835514,-1.0487814,0.0758657,229.4085,155.89986,0.37020433,0.41356537,0.14163817,0.10689348,inf,inf,inf,inf,1,1,1,1,2,0,2,1,48,1,1,1,0,0
21768768000,21768768000,1036000,41.606704,-86.3556021,-82.06435,145.31017,-158.48608,0.0005788274,3.0122314e-05,0.0,-2.9799333,5.3083673,-5.6530704,-5.7122183,-0.00041116442,-0.0022498725,0.0029786755,-0.1367919,0.11087502,-0.034015685,-1.0487549,0.0758657,229.4085,158.7349,0.37214556,0.41231158,0.14265801,0.10698146,inf,inf,inf,inf,1,1,1,1,2,0,2,1,48,1,1,1,0,0
21769272000,21769272000,1036000,41.606704,-86.3556021,-83.57919,148.00713,-161.362,0.0005788274,3.0122314e-05,0.0,-2.9828405,5.315349,-5.65879,-5.7130756,-0.00041116442,-0.0022498725,0.0029786755,-0.035429634,-0.003335032,-0.0003558284,-1.0487087,0.0758657,229.4085,161.61081,0.37569454,0.4146197,0.14472274,0.10767888,inf,inf,inf,inf,1,1,1,1,2,0,2,1,48,1,1,1,0,0
21769776000,21769776000,1036000,41.606704,-86.3556021,-85.0883,150.6996,-164.23564,0.0005788274,3.0122314e-05,0.0,-2.9776597,5.3088307,-5.661285,-5.7104697,-0.00041116442,-0.0022498725,0.0029786755,-0.08780452,-0.018196832,0.042213995,-1.0487443,0.0758657,229.4085,164.48445,0.3776473,0.41391328,0.14530878,0.10780695,inf,inf,inf,inf,1,1,1,1,2,0,2,1,48,1,1,1,0,0
21770272000,21770272000,1036000,41.606704,-86.3556021,-86.5802,153.35631,-167.06491,0.0005788274,3.0122314e-05,0.0,-2.975508,5.30855,-5.6709223,-5.7157288,-0.00041116442,-0.0022498725,0.0029786755,0.06452906,-0.031336423,0.023690918,-1.0486207,0.0758657,229.4085,167.31372,0.35987562,0.41076654,0.13707446,0.10532885,inf,inf,inf,inf,1,1,1,1,2,0,2,1,48,1,1,1,0,0
21770776000,21770776000,1036000,41.606704,-86.3556021,-88.09175,156.04741,-169.94379,0.0005788274,3.0122314e-05,0.0,-2.980171,5.2972836,-5.6819534,-5.723279,-0.00041116442,-0.0022498725,0.0029786755,-0.05799427,-0.042401794,0.03723142,-1.0485455,0.0758657,229.4085,170.1926,0.3825847,0.41523036,0.14767142,0.108536035,inf,inf,inf,inf,1,1,1,1,2,0,2,1,48,1,1,1,0,0
21771272000,21771272000,1036000,41.606704,-86.3556021,-89.58021,158.70222,-172.78044,0.0005788274,3.0122314e-05,0.0,-2.9718566,5.3008456,-5.689562,-5.727481,-0.00041116442,-0.0022498725,0.0029786755,-0.011547663,0.021171695,-0.005399871,-1.0485553,0.0758657,229.4085,173.02925,0.36342832,0.41191325,0.13856342,0.10590588,inf,inf,inf,inf,1,1,1,1,2,0,2,1,48,1,1,1,0,0
21771776000,21771776000,1036000,41.606704,-86.3556021,-91.09145,161.40073,-175.66228,0.0005788274,3.0122314e-05,0.0,-2.9694276,5.3052125,-5.694225,-5.7270465,-0.00041116442,-0.0022498725,0.0029786755,-0.012375867,0.034922607,-0.057494327,-1.0485355,0.0758657,229.4085,175.91109,0.36685237,0.41150978,0.1406494,0.1063272,inf,inf,inf,inf,1,1,1,1,2,0,2,1,48,1,1,1,0,0
21772272000,21772272000,1036000,41.606704,-86.3556021,-92.57758,164.05313,-178.49855,0.0005788274,3.0122314e-05,0.0,-2.9711607,5.3031206,-5.7059145,-5.7332025,-0.00041116442,-0.0022498725,0.0029786755,0.04594909,-0.17217252,0.25343236,-1.0486894,0.0758657,229.4085,178.74736,0.36813238,0.41048712,0.14093234,0.106371485,inf,inf,inf,inf,1,1,1,1,2,0,2,1,48,1,1,1,0,0
21772776000,21772776000,1036000,41.606704,-86.3556021,-94.08597,166.75024,-181.3817,0.0005788274,3.0122314e-05,0.0,-2.9691126,5.296651,-5.707596,-5.729861,-0.00041116442,-0.0022498725,0.0029786755,0.05326701,-0.0018210174,0.072468005,-1.0489339,0.0758657,229.4085,181.63051,0.37108046,0.41295165,0.14249633,0.10701964,inf,inf,inf,inf,1,1,1,1,2,0,2,1,48,1,1,1,0,0
21773272000,21773272000,1036000,41.606704,-86.3556021,-95.568405,169.40176,-184.22366,0.0005788274,3.0122314e-05,0.0,-2.9718213,5.298129,-5.713502,-5.7346754,-0.00041116442,-0.0022498725,0.0029786755,0.039120845,-0.049996,0.056024574,-1.0490757,0.0758657,229.4085,184.47247,0.37299222,0.4119904,0.14328294,0.1071463,inf,inf,inf,inf,1,1,1,1,2,0,2,1,48,1,1,1,0,0
21773776000,21773776000,1036000,41.606704,-86.3556021,-97.06465,172.09373,-187.10765,0.0005788274,3.0122314e-05,0.0,-2.9669213,5.2950463,-5.717015,-5.73306,-0.00041116442,-0.0022498725,0.0029786755,0.04420782,-0.056362417,0.028989213,-1.0493176,0.0758657,229.4085,187.35646,0.37526917,0.41438007,0.14418104,0.10766832,inf,inf,inf,inf,1,1,1,1,2,0,2,1,48,1,1,1,0,0
21774272000,21774272000,1036000,41.606704,-86.3556021,-98.53695,174.74487,-189.94827,0.0005788274,3.0122314e-05,0.0,-2.9651387,5.2853894,-5.7326555,-5.7448864,-0.00041116442,-0.0022498725,0.0029786755,0.012756481,-0.041837387,-0.115621895,-1.048984,0.0758657,229.4085,190.19708,0.35814655,0.4112331,0.13636804,0.10520946,inf,inf,inf,inf,1,1,1,1,2,0,2,1,48,1,1,1,0,0
21774776000,21774776000,1036000,41.606704,-86.3556021,-100.03821,177.42694,-192.84395,0.0005788274,3.0122314e-05,0.0,-2.972757,5.277713,-5.739437,-5.7506185,-0.00041116442,-0.0022498725,0.0029786755,-0.122516304,-0.03762841,-0.10353612,-1.0485669,0.0758657,229.4085,193.09276,0.380846,0.41562885,0.14704815,0.10841976,inf,inf,inf,inf,1,1,1,1,2,0,2,1,48,1,1,1,0,0
21775272000,21775272000,1036000,41.606704,-86.3556021,-101.52618,180.07832,-195.67723,0.0005788274,3.0122314e-05,0.0,-2.9714258,5.280804,-5.7443156,-5.7398763,-0.00041116442,-0.0022498725,0.0029786755,-0.05109861,-0.22633004,0.13939005,-1.0490382,0.0758657,229.4085,195.92604,0.36219484,0.41217187,0.1381693,0.10578675,inf,inf,inf,inf,1,1,1,1,2,0,2,1,48,1,1,1,0,0
21775768000,21775768000,1036000,41.606704,-86.3556021,-103.009285,182.7248,-198.51833,0.0005788274,3.0122314e-05,0.0,-2.9760365,5.27503,-5.748053,-5.739796,-0.00041116442,-0.0022498725,0.0029786755,-0.0007224904,-0.08746761,0.044482697,-1.0494194,0.0758657,229.4085,198.76714,0.38576454,0.41896468,0.14948547,0.1092963,inf,inf,inf,inf,1,1,1,1,2,0,2,1,48,1,1,1,0,0
21776272000,21776272000,1036000,41.606704,-86.3556021,-104.51015,185.41151,-201.39,0.0005788274,3.0122314e-05,0.0,-2.9744875,5.271637,-5.7504015,-5.7257266,-0.00041116442,-0.0022498725,0.0029786755,-0.0009460933,-0.006148868,0.0034095086,-1.0491467,0.0758657,229.4085,201.63881,0.3661446,0.4129273,0.13981636,0.10631165,inf,inf,inf,inf,1,1,1,1,2,0,2,1,48,1,1,1,0,0
21776768000,21776768000,1036000,41.606704,-86.3556021,-105.99231,188.05962,-204.21716,0.0005788274,3.0122314e-05,0.0,-2.9780488,5.273303,-5.75434,-5.720884,-0.00041116442,-0.0022498725,0.0029786755,-0.051657453,0.0071806107,0.000785973,-1.048557,0.0758657,229.4085,204.46597,0.3685817,0.41179183,0.14124621,0.106503844,inf,inf,inf,inf,1,1,1,1,2,0,2,1,48,1,1,1,0,0
21777272000,21777272000,1036000,41.606704,-86.3556021,-107.49436,190.73703,-207.10503,0.0005788274,3.0122314e-05,0.0,-2.9785185,5.2660494,-5.7624683,-5.7330537,-0.00041116442,-0.0022498725,0.0029786755,-0.01817508,0.047547158,-0.06295095,-1.0489278,0.0758657,229.4085,207.35384,0.37136224,0.4140146,0.14257114,0.1070881,inf,inf,inf,inf,1,1,1,1,2,0,2,1,48,1,1,1,0,0
21777776000,21777776000,1036000,41.606704,-86.3556021,-109.00187,193.41882,-209.98402,0.0005788274,3.0122314e-05,0.0,-2.9775605,5.2627115,-5.7605433,-5.7241707,-0.00041116442,-0.0022498725,0.0029786755,0.004951515,-0.024054721,-0.07690309,-1.048631,0.0758657,229.4085,210.23283,0.37392354,0.41616377,0.14370584,0.1076172,inf,inf,inf,inf,1,1,1,1,2,0,2,1,48,1,1,1,0,0
21778272000,21778272000,1036000,41.606704,-86.3556021,-110.48325,196.06079,-212.80702,0.0005788274,3.0122314e-05,0.0,-2.9749956,5.2586613,-5.7511306,-5.705631,-0.00041116442,-0.0022498725,0.0029786755,-0.030185793,0.06317171,-0.18302728,-1.0486981,0.0758657,229.4085,213.05583,0.37675202,0.4148722,0.14530641,0.107802495,inf,inf,inf,inf,1,1,1,1,2,0,2,1,48,1,1,1,0,0
21778776000,21778776000,1036000,41.606704,-86.3556021,-111.98465,198.73775,-215.69821,0.0005788274,3.0122314e-05,0.0,-2.980449,5.2571754,-5.7563787,-5.723271,-0.00041116442,-0.0022498725,0.0029786755,-0.028754605,-0.0062628062,-0.008038308,-1.0483899,0.0758657,229.4085,215.94702,0.37852994,0.41691703,0.1456725,0.1082074,inf,inf,inf,inf,1,1,1,1,2,0,2,1,48,1,1,1,0,0
21779272000,21779272000,1036000,41.606704,-86.3556021,-113.4659,201.38733,-218.5348,0.0005788274,3.0122314e-05,0.0,-2.9740727,5.261209,-5.757003,-5.7226677,-0.00041116442,-0.0022498725,0.0029786755,0.071176626,0.07200385,-0.012571986,-1.0488746,0.0758657,229.4085,218.78362,0.3605791,0.4106884,0.13731118,0.105361864,inf,inf,inf,inf,1,1,1,1,2,0,2,1,48,1,1,1,0,0
21779776000,21779776000,1036000,41.606704,-86.3556021,-114.95973,204.06471,-221.408,0.0005788274,3.0122314e-05,0.0,-2.9730074,5.259228,-5.7536464,-5.7124763,-0.00041116442,-0.0022498725,0.0029786755,-0.14073403,0.08663261,-0.0072364393,-1.0491065,0.0758657,229.4085,221.65681,0.38475558,0.4152958,0.14899217,0.10877047,inf,inf,inf,inf,1,1,1,1,2,0,2,1,48,1,1,1,0,0
21780272000,21780272000,1036000,41.606704,-86.3556021,-116.43835,206.70122,-224.24724,0.0005788274,3.0122314e-05,0.0,-2.9751692,5.2584968,-5.7584352,-5.7210364,-0.00041116442,-0.0022498725,0.0029786755,0.0013302433,-0.032332826,-0.041289315,-1.04914,0.0758657,229.4085,224.49605,0.3649693,0.4119018,0.13937366,0.10609672,inf,inf,inf,inf,1,1,1,1,2,0,2,1,48,1,1,1,0,0
21780768000,21780768000,1036000,41.606704,-86.3556021,-117.915,209.3377,-227.0784,0.0005788274,3.0122314e-05,0.0,-2.9759805,5.255108,-5.754983,-5.7134213,-0.00041116442,-0.0022498725,0.0029786755,0.019888103,-0.020692589,0.016405182,-1.0492097,0.0758657,229.4085,227.32721,0.3676095,0.41363862,0.14093678,0.10663234,inf,inf,inf,inf,1,1,1,1,2,0,2,1,48,1,1,1,0,0
21781272000,21781272000,1036000,41.606704,-86.3556021,-119.41029,212.00812,-229.95346,0.0005788274,3.0122314e-05,0.0,-2.9771416,5.250032,-5.7450137,-5.7022047,-0.00041116442,-0.0022498725,0.0029786755,0.13706888,0.050764315,-0.14279974,-1.0492848,0.0758657,229.4085,230.20227,0.36939308,0.41283384,0.14133903,0.1067249,inf,inf,inf,inf,1,1,1,1,2,0,2,1,48,1,1,1,0,0
21781776000,21781776000,1036000,41.606704,-86.3556021,-120.89911,214.6864,-232.82257,0.0005788274,3.0122314e-05,0.0,-2.964326,5.2598214,-5.7369847,-5.693722,-0.00041116442,-0.0022498725,0.0029786755,0.11956252,-0.18521425,0.20073068,-1.0490592,0.0758657,229.4085,233.07138,0.37212542,0.41499808,0.14267983,0.107285276,inf,inf,inf,inf,1,1,1,1,2,0,2,1,48,1,1,1,0,0
21782272000,21782272000,1036000,41.606704,-86.3556021,-122.36897,217.32072,-235.65717,0.0005788274,3.0122314e-05,0.0,-2.9618146,5.2591057,-5.7289176,-5.697316,-0.00041116442,-0.0022498725,0.0029786755,0.024968326,-0.08398961,0.012933213,-1.0491815,0.0758657,229.4085,235.90598,0.37509984,0.41378468,0.14445095,0.10751207,inf,inf,inf,inf,1,1,1,1,2,0,2,1,48,1,1,1,0,0
21782776000,21782776000,1036000,41.606704,-86.3556021,-123.8654,219.99127,-238.52855,0.0005788274,3.0122314e-05,0.0,-2.9571679,5.25815,-5.716598,-5.686508,-0.00041116442,-0.0022498725,0.0029786755,0.087209955,-0.032869723,0.0014658384,-1.0493308,0.0758657,229.4085,238.77736,0.37716794,0.41593087,0.1450483,0.10797235,inf,inf,inf,inf,1,1,1,1,2,0,2,1,48,1,1,1,0,0
21783272000,21783272000,1036000,41.606704,-86.3556021,-125.33127,222.62773,-241.35304,0.0005788274,3.0122314e-05,0.0,-2.9588308,5.2598033,-5.7065806,-5.681837,-0.00041116442,-0.0022498725,0.0029786755,-0.0072265845,0.017208286,0.06375455,-1.0492431,0.0758657,229.4085,241.60185,0.35954824,0.4125171,0.13685286,0.10544714,inf,inf,inf,inf,1,1,1,1,2,0,2,1,48,1,1,1,0,0
21783776000,21783776000,1036000,41.606704,-86.3556021,-126.825035,225.29765,-244.21469,0.0005788274,3.0122314e-05,0.0,-2.966176,5.2620397,-5.6878343,-5.6659775,-0.00041116442,-0.0022498725,0.0029786755,-0.039976303,0.008461872,-0.040494896,-1.0492266,0.0758657,229.4085,244.4635,0.38233328,0.41674018,0.14740168,0.10862899,inf,inf,inf,inf,1,1,1,1,2,0,2,1,48,1,1,1,0,0
21784272000,21784272000,1036000,41.606704,-86.3556021,-128.2946,227.92004,-247.03236,0.0005788274,3.0122314e-05,0.0,-2.967591,5.2598157,-5.666823,-5.6542587,-0.00041116442,-0.0022498725,0.0029786755,0.012421823,0.09224973,-0.091546275,-1.0495744,0.0758657,229.4085,247.28117,0.36320135,0.4130838,0.13824035,0.1059365,inf,inf,inf,inf,1,1,1,1,2,0,2,1,48,1,1,1,0,0
21784776000,21784776000,1036000,41.606704,-86.3556021,-129.78392,230.58723,-249.88571,0.0005788274,3.0122314e-05,0.0,-2.9567556,5.2590775,-5.6532784,-5.6459384,-0.00041116442,-0.0022498725,0.0029786755,-0.0045973,-0.080013156,0.1753093,-1.0492367,0.0758657,229.4085,250.13452,0.36665615,0.41227588,0.14031315,0.10628987,inf,inf,inf,inf,1,1,1,1,2,0,2,1,48,1,1,1,0,0
21785272000,21785272000,1036000,41.606704,-86.3556021,-131.24411,233.20619,-252.69073,0.0005788274,3.0122314e-05,0.0,-2.9503675,5.258742,-5.635725,-5.6355357,-0.00041116442,-0.0022498725,0.0029786755,0.06966442,-0.037530005,0.055354953,-1.049208,0.0758657,229.4085,252.93954,0.3679664,0.413615,0.14059396,0.10656972,inf,inf,inf,inf,1,1,1,1,2,0,2,1,48,1,1,1,0,0
21785768000,21785768000,1036000,41.606704,-86.3556021,-132.70706,235.82729,-255.50728,0.0005788274,3.0122314e-05,0.0,-2.9520223,5.2593555,-5.625453,-5.6446605,-0.00041116442,-0.0022498725,0.0029786755,0.115040116,-0.08583788,0.06906495,-1.0492439,0.0758657,229.4085,255.75609,0.37023336,0.41503602,0.14179847,0.10700281,inf,inf,inf,inf,1,1,1,1,2,0,2,1,48,1,1,1,0,0
21786272000,21786272000,1036000,41.606704,-86.3556021,-134.19827,238.48373,-258.36902,0.0005788274,3.0122314e-05,0.0,-2.9489791,5.2568545,-5.6176186,-5.64965,-0.00041116442,-0.0022498725,0.0029786755,0.05455283,-0.07211035,0.06426864,-1.049245,0.0758657,229.4085,258.61783,0.37279037,0.4141343,0.14288738,0.10720237,inf,inf,inf,inf,1,1,1,1,2,0,2,1,48,1,1,1,0,0
21786768000,21786768000,1036000,41.606704,-86.3556021,-135.66531,241.10413,-261.18573,0.0005788274,3.0122314e-05,0.0,-2.946478,5.2593136,-5.614322,-5.6569386,-0.00041116442,-0.0022498725,0.0029786755,0.05349826,-0.047147375,-0.013685847,-1.0492281,0.0758657,229.4085,261.43454,0.37437466,0.4155821,0.14350772,0.10754828,inf,inf,inf,inf,1,1,1,1,2,0,2,1,48,1,1,1,0,0
21787272000,21787272000,1036000,41.606704,-86.3556021,-137.1507,243.76318,-264.05273,0.0005788274,3.0122314e-05,0.0,-2.9448175,5.257347,-5.6108894,-5.66484,-0.00041116442,-0.0022498725,0.0029786755,-0.048491925,0.033721782,-0.057727158,-1.0491612,0.0758657,229.4085,264.30154,0.35797298,0.40984786,0.1360298,0.1049072,inf,inf,inf,inf,1,1,1,1,2,0,2,1,48,1,1,1,0,0
21787776000,21787776000,1036000,41.606704,-86.3556021,-138.63962,246.41809,-266.91553,0.0005788274,3.0122314e-05,0.0,-2.9390147,5.2564435,-5.6088567,-5.666083,-0.00041116442,-0.0022498725,0.0029786755,-0.09639474,0.11017782,-0.1546024,-1.0494323,0.0758657,229.4085,267.16434,0.3806275,0.41681534,0.14669198,0.10842216,inf,inf,inf,inf,1,1,1,1,2,0,2,1,48,1,1,1,0,0
21788272000,21788272000,1036000,41.606704,-86.3556021,-140.11147,249.03918,-269.74158,0.0005788274,3.0122314e-05,0.0,-2.938005,5.263354,-5.6087356,-5.675929,-0.00041116442,-0.0022498725,0.0029786755,0.008012821,-0.03470899,0.060745448,-1.0493417,0.0758657,229.4085,269.9904,0.36205187,0.41315976,0.13789673,0.10579243,inf,inf,inf,inf,1,1,1,1,2,0,2,1,48,1,1,1,0,0
21788776000,21788776000,1036000,41.606704,-86.3556021,-141.60168,251.70178,-272.60867,0.0005788274,3.0122314e-05,0.0,-2.9379518,5.263575,-5.615639,-5.682078,-0.00041116442,-0.0022498725,0.0029786755,0.05727979,-0.055439334,0.038462628,-1.0493413,0.0758657,229.4085,272.85748,0.38634688,0.41735932,0.14953597,0.109111,inf,inf,inf,inf,1,1,1,1,2,0,2,1,48,1,1,1,0,0
21789272000,21789272000,1036000,41.606704,-86.3556021,-143.05537,254.32097,-275.42697,0.0005788274,3.0122314e-05,0.0,-2.9242342,5.273223,-5.6184525,-5.6835055,-0.00041116442,-0.0022498725,0.0029786755,-0.02658495,-0.0018574481,0.009098958,-1.049427,0.0758657,229.4085,275.67578,0.36602965,0.41350704,0.13959591,0.10631201,inf,inf,inf,inf,1,1,1,1,2,0,2,1,48,1,1,1,0,0
21789768000,21789768000,1036000,41.606704,-86.3556021,-144.51302,256.9449,-278.25232,0.0005788274,3.0122314e-05,0.0,-2.924485,5.271663,-5.6213846,-5.690356,-0.00041116442,-0.0022498725,0.0029786755,0.042398095,-0.038126606,-0.022854717,-1.0499333,0.0758657,229.4085,278.50113,0.36847663,0.41489974,0.1410548,0.10677934,inf,inf,inf,inf,1,1,1,1,2,0,2,1,48,1,1,1,0,0
21790272000,21790272000,1036000,41.606704,-86.3556021,-146.00099,259.61072,-281.115,0.0005788274,3.0122314e-05,0.0,-2.9309793,5.2714477,-5.6157107,-5.6791706,-0.00041116442,-0.0022498725,0.0029786755,0.012560456,-0.03526279,0.0059836837,-1.0496893,0.0758657,229.4085,281.3638,0.3712662,0.41392323,0.14235541,0.10700977,inf,inf,inf,inf,1,1,1,1,2,0,2,1,48,1,1,1,0,0
21790776000,21790776000,1036000,41.606704,-86.3556021,-147.49028,262.27374,-283.97458,0.0005788274,3.0122314e-05,0.0,-2.9351342,5.262425,-5.6132827,-5.674236,-0.00041116442,-0.0022498725,0.0029786755,0.072952166,0.0837481,-0.14843704,-1.0492896,0.0758657,229.4085,284.2234,0.3738349,0.41597214,0.14351001,0.107554965,inf,inf,inf,inf,1,1,1,1,2,0,2,1,48,1,1,1,0,0
21791272000,21791272000,1036000,41.606704,-86.3556021,-148.95865,264.8959,-286.7972,0.0005788274,3.0122314e-05,0.0,-2.9398503,5.266788,-5.6229568,-5.686622,-0.00041116442,-0.0022498725,0.0029786755,-0.042697135,-0.0040722922,0.065067716,-1.0498726,0.0758657,229.4085,287.04602,0.37667054,0.4146317,0.14515413,0.10776488,inf,inf,inf,inf,1,1,1,1,2,0,2,1,48,1,1,1,0,0
21791776000,21791776000,1036000,41.606704,-86.3556021,-150.44447,267.5611,-289.66458,0.0005788274,3.0122314e-05,0.0,-2.950187,5.267248,-5.6248827,-5.6896424,-0.00041116442,-0.0022498725,0.0029786755,-0.051346883,0.002590489,-0.017035816,-1.0495195,0.0758657,229.4085,289.9134,0.37852743,0.41380596,0.14558935,0.10788698,inf,inf,inf,inf,1,1,1,1,2,0,2,1,48,1,1,1,0,0
21792272000,21792272000,1036000,41.606704,-86.3556021,-151.90579,270.19333,-292.48737,0.0005788274,3.0122314e-05,0.0,-2.9501638,5.265692,-5.6278744,-5.6912327,-0.00041116442,-0.0022498725,0.0029786755,0.013684028,-0.05926449,0.03209052,-1.0499626,0.0758657,229.4085,292.73618,0.36052713,0.4105154,0.13719207,0.10537884,inf,inf,inf,inf,1,1,1,1,2,0,2,1,48,1,1,1,0,0
21792776000,21792776000,1036000,41.606704,-86.3556021,-153.38402,272.85916,-295.35757,0.0005788274,3.0122314e-05,0.0,-2.947434,5.2643805,-5.630431,-5.6938562,-0.00041116442,-0.0022498725,0.0029786755,0.024938138,0.0054186173,0.029530311,-1.0501864,0.0758657,229.4085,295.60638,0.38476217,0.41783267,0.14892513,0.10909457,inf,inf,inf,inf,1,1,1,1,2,0,2,1,48,1,1,1,0,0
21793272000,21793272000,1036000,41.606704,-86.3556021,-154.8356,275.49075,-298.17465,0.0005788274,3.0122314e-05,0.0,-2.9394047,5.2635546,-5.6239047,-5.683238,-0.00041116442,-0.0022498725,0.0029786755,-0.028252257,-0.029055158,-0.059084095,-1.0496943,0.0758657,229.4085,298.42346,0.36497504,0.41131556,0.1392648,0.106042705,inf,inf,inf,inf,1,1,1,1,2,0,2,1,48,1,1,1,0,0
21793776000,21793776000,1036000,41.606704,-86.3556021,-156.31491,278.1645,-301.0484,0.0005788274,3.0122314e-05,0.0,-2.940893,5.25803,-5.6230984,-5.689759,-0.00041116442,-0.0022498725,0.0029786755,0.0052474374,0.07795224,-0.08360675,-1.0494164,0.0758657,229.4085,301.2972,0.36829838,0.41351128,0.14115751,0.10671827,inf,inf,inf,inf,1,1,1,1,2,0,2,1,48,1,1,1,0,0
21794272000,21794272000,1036000,41.606704,-86.3556021,-157.76839,280.7866,-303.8693,0.0005788274,3.0122314e-05,0.0,-2.9294844,5.2612205,-5.6246543,-5.6898875,-0.00041116442,-0.0022498725,0.0029786755,0.09897831,-0.092822775,0.35150993,-1.0497844,0.0758657,229.4085,304.1181,0.36932683,0.4121378,0.14117,0.106666155,inf,inf,inf,inf,1,1,1,1,2,0,2,1,48,1,1,1,0,0
21794776000,21794776000,1036000,41.606704,-86.3556021,-159.24614,283.45154,-306.7382,0.0005788274,3.0122314e-05,0.0,-2.931685,5.2481318,-5.627553,-5.6920476,-0.00041116442,-0.0022498725,0.0029786755,0.032027997,-0.09754776,0.05928327,-1.0496931,0.0758657,229.4085,306.987,0.37206382,0.41437477,0.14257753,0.1072532,inf,inf,inf,inf,1,1,1,1,2,0,2,1,48,1,1,1,0,0
21795272000,21795272000,1036000,41.606704,-86.3556021,-160.70007,286.07312,-309.56302,0.0005788274,3.0122314e-05,0.0,-2.9383714,5.2486725,-5.6398416,-5.7027125,-0.00041116442,-0.0022498725,0.0029786755,0.002086948,-0.039260156,0.14689185,-1.0496836,0.0758657,229.4085,309.81183,0.3750445,0.41610965,0.14439274,0.10782189,inf,inf,inf,inf,1,1,1,1,2,0,2,1,48,1,1,1,0,0
21795776000,21795776000,1036000,41.606704,-86.3556021,-162.17793,288.74216,-312.44238,0.0005788274,3.0122314e-05,0.0,-2.9417796,5.242058,-5.654899,-5.7192054,-0.00041116442,-0.0022498725,0.0029786755,0.03171612,-0.0745749,-0.015509377,-1.0500548,0.0758657,229.4085,312.6912,0.37712145,0.4153411,0.14504977,0.10795586,inf,inf,inf,inf,1,1,1,1,2,0,2,1,48,1,1,1,0,0
21796272000,21796272000,1036000,41.606704,-86.3556021,-163.63416,291.38092,-315.27106,0.0005788274,3.0122314e-05,0.0,-2.9516544,5.243178,-5.665678,-5.720965,-0.00041116442,-0.0022498725,0.0029786755,-0.094932705,0.0008644548,-0.09478169,-1.05018,0.0758657,229.4085,315.51987,0.35951555,0.40915644,0.1369039,0.105133675,inf,inf,inf,inf,1,1,1,1,2,0,2,1,48,1,1,1,0,0
21796776000,21796776000,1036000,41.606704,-86.3556021,-165.11447,294.05118,-318.15082,0.0005788274,3.0122314e-05,0.0,-2.9580905,5.244688,-5.6720204,-5.7226706,-0.00041116442,-0.0022498725,0.0029786755,-0.065037765,0.013997832,-0.13260642,-1.0496792,0.0758657,229.4085,318.39963,0.38223925,0.4164515,0.14745872,0.10867644,inf,inf,inf,inf,1,1,1,1,2,0,2,1,48,1,1,1,0,0
21797272000,21797272000,1036000,41.606704,-86.3556021,-166.56302,296.68298,-320.9755,0.0005788274,3.0122314e-05,0.0,-2.9656017,5.24628,-5.677309,-5.716289,-0.00041116442,-0.0022498725,0.0029786755,-0.09320964,-0.081851244,0.16801052,-1.0497826,0.0758657,229.4085,321.2243,0.36313602,0.410206,0.13833705,0.10571783,inf,inf,inf,inf,1,1,1,1,2,0,2,1,48,1,1,1,0,0
21797776000,21797776000,1036000,41.606704,-86.3556021,-168.03627,299.3569,-323.84546,0.0005788274,3.0122314e-05,0.0,-2.9626048,5.246356,-5.676152,-5.7074127,-0.00041116442,-0.0022498725,0.0029786755,-0.007714112,0.01575536,-0.063928835,-1.0497757,0.0758657,229.4085,324.09427,0.3666075,0.41249403,0.14042702,0.10643011,inf,inf,inf,inf,1,1,1,1,2,0,2,1,48,1,1,1,0,0
21798272000,21798272000,1036000,41.606704,-86.3556021,-169.48949,301.9783,-326.6759,0.0005788274,3.0122314e-05,0.0,-2.9611993,5.2444997,-5.678304,-5.710119,-0.00041116442,-0.0022498725,0.0029786755,0.07550377,-0.08086492,0.026652524,-1.0500898,0.0758657,229.4085,326.9247,0.36793146,0.41404662,0.14071473,0.10673951,inf,inf,inf,inf,1,1,1,1,2,0,2,1,48,1,1,1,0,0
21798776000,21798776000,1036000,41.606704,-86.3556021,-170.96085,304.6547,-329.56143,0.0005788274,3.0122314e-05,0.0,-2.9529502,5.2403145,-5.6841526,-5.7215405,-0.00041116442,-0.0022498725,0.0029786755,0.0078784805,-0.11364412,0.038721535,-1.0495919,0.0758657,229.4085,329.81024,0.370911,0.41348013,0.14227219,0.10704647,inf,inf,inf,inf,1,1,1,1,2,0,2,1,48,1,1,1,0,0
21799272000,21799272000,1036000,41.606704,-86.3556021,-172.41113,307.28024,-332.3983,0.0005788274,3.0122314e-05,0.0,-2.9500408,5.2320824,-5.6896067,-5.7258663,-0.00041116442,-0.0022498725,0.0029786755,0.11253145,-0.018048577,-0.002869468,-1.0502672,0.0758657,229.4085,332.6471,0.37284845,0.4123429,0.14309005,0.10714743,inf,inf,inf,inf,1,1,1,1,2,0,2,1,48,1,1,1,0,0
21799776000,21799776000,1036000,41.606704,-86.3556021,-173.8781,309.9523,-335.2812,0.0005788274,3.0122314e-05,0.0,-2.9403117,5.234193,-5.697109,-5.729455,-0.00041116442,-0.0022498725,0.0029786755,0.073547386,-0.030672602,-0.10657968,-1.0498453,0.0758657,229.4085,335.53,0.37514699,0.41459122,0.14402717,0.10765638,inf,inf,inf,inf,1,1,1,1,2,0,2,1,48,1,1,1,0,0
21800272000,21800272000,1036000,41.606704,-86.3556021,-175.31947,312.58658,-338.11237,0.0005788274,3.0122314e-05,0.0,-2.9357371,5.2339706,-5.6896567,-5.7139544,-0.00041116442,-0.0022498725,0.0029786755,0.001334377,0.10440127,-0.035066217,-1.0495957,0.0758657,229.4085,338.36118,0.35801306,0.41135833,0.13615598,0.10518851,inf,inf,inf,inf,1,1,1,1,2,0,2,1,48,1,1,1,0,0
21800776000,21800776000,1036000,41.606704,-86.3556021,-176.79132,315.2481,-340.98962,0.0005788274,3.0122314e-05,0.0,-2.933221,5.2210655,-5.695439,-5.7157006,-0.00041116442,-0.0022498725,0.0029786755,-0.026003461,-0.13198249,0.01445872,-1.0497392,0.0758657,229.4085,341.23843,0.38068655,0.4156697,0.14681147,0.108395,inf,inf,inf,inf,1,1,1,1,2,0,2,1,48,1,1,1,0,0
21801272000,21801272000,1036000,41.606704,-86.3556021,-178.2409,317.8733,-343.82684,0.0005788274,3.0122314e-05,0.0,-2.932551,5.2112823,-5.7025833,-5.723638,-0.00041116442,-0.0022498725,0.0029786755,0.031053396,-0.068353824,0.127525,-1.0498759,0.0758657,229.4085,344.07565,0.3620905,0.41224396,0.13799164,0.105780385,inf,inf,inf,inf,1,1,1,1,2,0,2,1,48,1,1,1,0,0
21801776000,21801776000,1036000,41.606704,-86.3556021,-179.71939,320.5398,-346.7071,0.0005788274,3.0122314e-05,0.0,-2.9294682,5.2108445,-5.709454,-5.7253327,-0.00041116442,-0.0022498725,0.0029786755,-0.0008109065,0.0067543536,0.054436672,-1.0494128,0.0758657,229.4085,346.9559,0.38639998,0.4168217,0.14962439,0.10914747,inf,inf,inf,inf,1,1,1,1,2,0,2,1,48,1,1,1,0,0
21802272000,21802272000,1036000,41.606704,-86.3556021,-181.16695,323.16785,-349.52966,0.0005788274,3.0122314e-05,0.0,-2.9198856,5.2102675,-5.711581,-5.7144814,-0.00041116442,-0.0022498725,0.0029786755,0.015058705,-0.06012384,0.0021065883,-1.0494736,0.0758657,229.4085,349.77847,0.36617666,0.41329542,0.13977908,0.1064005,inf,inf,inf,inf,1,1,1,1,2,0,2,1,48,1,1,1,0,0
21802776000,21802776000,1036000,41.606704,-86.3556021,-182.63655,325.83795,-352.41565,0.0005788274,3.0122314e-05,0.0,-2.912239,5.204952,-5.7232385,-5.729119,-0.00041116442,-0.0022498725,0.0029786755,-0.0483855,-0.032158576,-0.05400373,-1.0499241,0.0758657,229.4085,352.66446,0.36929944,0.41270614,0.14154273,0.10672192,inf,inf,inf,inf,1,1,1,1,2,0,2,1,48,1,1,1,0,0
21803272000,21803272000,1036000,41.606704,-86.3556021,-184.086,328.46182,-355.25058,0.0005788274,3.0122314e-05,0.0,-2.9110065,5.2083263,-5.7213593,-5.7228312,-0.00041116442,-0.0022498725,0.0029786755,0.06732466,0.032022007,-0.12284243,-1.0497906,0.0758657,229.4085,355.4994,0.3714416,0.41443878,0.14253935,0.10717756,inf,inf,inf,inf,1,1,1,1,2,0,2,1,48,1,1,1,0,0
21803776000,21803776000,1036000,41.606704,-86.3556021,-185.56314,331.13312,-358.12634,0.0005788274,3.0122314e-05,0.0,-2.9213438,5.205948,-5.7285366,-5.7225866,-0.00041116442,-0.0022498725,0.0029786755,0.06984783,-0.14472902,0.21273822,-1.0496439,0.0758657,229.4085,358.37515,0.3739873,0.41377485,0.14365879,0.107390694,inf,inf,inf,inf,1,1,1,1,2,0,2,1,48,1,1,1,0,0
21804272000,21804272000,1036000,41.606704,-86.3556021,-187.0196,333.7614,-360.9558,0.0005788274,3.0122314e-05,0.0,-2.9255307,5.2003784,-5.72419,-5.7136927,-0.00041116442,-0.0022498725,0.0029786755,0.022220803,-0.05903967,-0.0031768044,-1.0495892,0.0758657,229.4085,361.20462,0.3768009,0.4155589,0.14525805,0.10792944,inf,inf,inf,inf,1,1,1,1,2,0,2,1,48,1,1,1,0,0
21804768000,21804768000,1036000,41.606704,-86.3556021,-188.4633,336.37994,-363.78937,0.0005788274,3.0122314e-05,0.0,-2.9170415,5.203034,-5.7261167,-5.7144537,-0.00041116442,-0.0022498725,0.0029786755,-0.06773295,-0.048914254,0.08052022,-1.0497327,0.0758657,229.4085,364.03818,0.37790367,0.41428712,0.14531396,0.107886285,inf,inf,inf,inf,1,1,1,1,2,0,2,1,48,1,1,1,0,0
21805272000,21805272000,1036000,41.606704,-86.3556021,-189.94133,339.0436,-366.65973,0.0005788274,3.0122314e-05,0.0,-2.9247975,5.2094507,-5.725977,-5.7084394,-0.00041116442,-0.0022498725,0.0029786755,-0.017337691,-0.08186827,-0.03629463,-1.0496838,0.0758657,229.4085,366.90854,0.36060184,0.41150737,0.13725658,0.10548396,inf,inf,inf,inf,1,1,1,1,2,0,2,1,48,1,1,1,0,0
21805768000,21805768000,1036000,41.606704,-86.3556021,-191.396,341.667,-369.49835,0.0005788274,3.0122314e-05,0.0,-2.9228811,5.2141523,-5.734486,-5.722178,-0.00041116442,-0.0022498725,0.0029786755,0.00077949464,0.031374935,-0.011253233,-1.049522,0.0758657,229.4085,369.74716,0.38400927,0.41828892,0.14860554,0.10902109,inf,inf,inf,inf,1,1,1,1,2,0,2,1,48,1,1,1,0,0
21806272000,21806272000,1036000,41.606704,-86.3556021,-192.86493,344.33,-372.38724,0.0005788274,3.0122314e-05,0.0,-2.916922,5.2197876,-5.7410774,-5.730749,-0.00041116442,-0.0022498725,0.0029786755,-0.01707973,-0.07166193,-0.16069697,-1.0499018,0.0758657,229.4085,372.63605,0.364979,0.41229174,0.13933377,0.106096216,inf,inf,inf,inf,1,1,1,1,2,0,2,1,48,1,1,1,0,0
21806768000,21806768000,1036000,41.606704,-86.3556021,-194.201,346.80933,-374.65237,0.0005788274,3.0122314e-05,0.0,-2.1639524,4.2990403,-2.708368,-2.7081647,-0.00041116442,-0.0022498725,0.0029786755,4.0329933,-4.160105,6.0321293,-1.040342,0.0758657,229.4085,374.90118,0.36747608,0.4139218,0.1338526,0.104732096,inf,inf,inf,inf,1,1,1,1,2,0,2,1,48,1,1,1,0,0
21807272000,21807272000,1036000,41.606704,-86.3556021,-194.89601,348.39935,-375.6054,0.0005788274,3.0122314e-05,0.0,-1.0067647,1.8230314,-1.3841289,-1.4027973,-0.00041116442,-0.0022498725,0.0029786755,0.06700985,-4.7754726,-0.894472,-1.0636592,0.0758657,229.4085,375.85422,0.36881703,0.41284195,0.14145644,0.09889046,inf,inf,inf,inf,1,1,1,1,2,0,2,1,48,1,1,1,0,0
21807776000,21807776000,1036000,41.606704,-86.3556021,-195.35498,348.96976,-376.2899,0.0005788274,3.0122314e-05,0.0,-0.4785648,0.40884274,-1.1066749,-1.1039183,-0.00041116442,-0.0022498725,0.0029786755,1.3969604,-1.080094,0.8595389,-1.064044,0.0758657,229.4085,376.5387,0.37122488,0.41110948,0.152786,0.09579418,inf,inf,inf,inf,1,1,1,1,2,0,2,1,48,1,1,1,0,0
21808272000,21808272000,1036000,41.606704,-86.3556021,-195.54655,349.1385,-376.75397,0.0005788274,3.0122314e-05,0.0,-0.22551663,0.20908709,-0.758409,-0.7317572,-0.00041116442,-0.0022498725,0.0029786755,0.40991923,-0.71399355,1.7479218,-1.060542,0.0758657,229.4085,377.00278,0.37430575,0.41132548,0.15620342,0.094825946,inf,inf,inf,inf,1,1,1,1,2,0,2,1,48,1,1,1,0,0
21808768000,21808768000,1036000,41.606704,-86.3556021,-195.5762,349.08188,-376.93195,0.0005788274,3.0122314e-05,0.0,0.28039742,-0.47462577,-0.12812841,-0.095752396,-0.00041116442,-0.0022498725,0.0029786755,1.0031257,-1.7097782,0.87674415,-1.0612379,0.0758657,229.4085,377.18076,0.37586305,0.41137803,0.15908405,0.095729016,inf,inf,inf,inf,1,1,1,1,2,0,2,1,48,1,1,1,0,0
21809272000,21809272000,1036000,41.606704,-86.3556021,-195.36833,348.62808,-376.88602,0.0005788274,3.0122314e-05,0.0,0.65750533,-1.2634966,0.30321616,0.32497388,-0.00041116442,-0.0022498725,0.0029786755,0.5702126,-0.91167176,1.1847082,-1.0631995,0.0758657,229.4085,377.13483,0.35907197,0.4056553,0.15174313,0.09568013,inf,inf,inf,inf,1,1,1,1,2,0,2,1,48,1,1,1,0,0
21809768000,21809768000,1036000,41.606704,-86.3556021,-194.99844,347.88733,-376.6308,0.0005788274,3.0122314e-05,0.0,0.8844251,-1.580946,0.7515422,0.7578387,-0.00041116442,-0.0022498725,0.0029786755,0.12479212,-0.31547037,0.6457408,-1.0528396,0.0758657,229.4085,376.8796,0.38198435,0.40672058,0.16473687,0.10063615,inf,inf,inf,inf,1,1,1,1,2,0,2,1,48,1,1,1,0,0
21810272000,21810272000,1036000,41.606704,-86.3556021,-194.55246,347.03018,-376.24646,0.0005788274,3.0122314e-05,0.0,0.8751935,-1.6175208,0.81564635,0.8115841,-0.00041116442,-0.0022498725,0.0029786755,-0.08440185,0.3679722,0.44888714,-1.0550516,0.0758657,229.4085,376.49527,0.36334288,0.40428504,0.1532624,0.10139183,inf,inf,inf,inf,1,1,1,1,2,0,2,1,48,1,1,1,0,0
21810776000,21810776000,1036000,41.606704,-86.3556021,-194.107,346.251,-375.80005,0.0005788274,3.0122314e-05,0.0,0.79986554,-1.2467535,0.9893318,0.97476256,-0.00041116442,-0.0022498725,0.0029786755,-0.2889283,0.9531411,0.10557186,-1.0448579,0.0758657,229.4085,376.04886,0.36720008,0.40304106,0.15619257,0.1047474,inf,inf,inf,inf,1,1,1,1,2,0,2,1,48,1,1,1,0,0
21811272000,21811272000,1036000,41.606704,-86.3556021,-193.72218,345.6891,-375.3185,0.0005788274,3.0122314e-05,0.0,0.6055861,-0.92612636,1.0175887,0.99523896,-0.00041116442,-0.0022498725,0.0029786755,-0.57811856,0.5519468,-0.019702192,-1.0502753,0.0758657,229.4085,375.56732,0.36875284,0.4043022,0.15754032,0.10782126,inf,inf,inf,inf,1,1,1,1,2,0,2,1,48,1,1,1,0,0
21811768000,21811768000,1036000,41.606704,-86.3556021,-193.4222,345.26382,-374.84674,0.0005788274,3.0122314e-05,0.0,0.43368447,-0.6789044,1.051567,1.0076984,-0.00041116442,-0.0022498725,0.0029786755,-0.27485934,0.57910126,0.079115786,-1.051349,0.0758657,229.4085,375.09555,0.37132737,0.40598547,0.15955596,0.11083594,inf,inf,inf,inf,1,1,1,1,2,0,2,1,48,1,1,1,0,0
21812272000,21812272000,1036000,41.606704,-86.3556021,-193.21,344.97797,-374.34714,0.0005788274,3.0122314e-05,0.0,0.2478428,-0.39921832,1.0699697,1.016747,-0.00041116442,-0.0022498725,0.0029786755,-0.40084514,0.5042,-0.006248306,-1.0519986,0.0758657,229.4085,374.59595,0.374187,0.40587828,0.16059524,0.11331875,inf,inf,inf,inf,1,1,1,1,2,0,2,1,48,1,1,1,0,0
21812776000,21812776000,1036000,41.606704,-86.3556021,-193.07895,344.82132,-373.86023,0.0005788274,3.0122314e-05,0.0,0.09445624,-0.1750055,1.0577567,0.99035484,-0.00041116442,-0.0022498725,0.0029786755,-0.26664641,0.44713384,0.103526674,-1.0522292,0.0758657,229.4085,374.10904,0.37674755,0.40620804,0.16060832,0.11534303,inf,inf,inf,inf,1,1,1,1,2,0,2,1,48,1,1,1,0,0
21813272000,21813272000,1036000,41.606704,-86.3556021,-193.02144,344.77484,-373.38583,0.0005788274,3.0122314e-05,0.0,-0.0100497985,-0.04518071,1.0729288,0.9924913,-0.00041116442,-0.0022498725,0.0029786755,-0.26556954,0.12710874,0.12185417,-1.051779,0.0758657,229.4085,373.63464,0.35897523,0.4043289,0.14843996,0.113547616,inf,inf,inf,inf,1,1,1,1,2,0,2,1,48,1,1,1,0,0
21813776000,21813776000,1036000,41.606704,-86.3556021,-193.0202,344.77768,-372.88748,0.0005788274,3.0122314e-05,0.0,-0.06725697,0.0050878436,1.0697814,0.9909631,-0.00041116442,-0.0022498725,0.0029786755,-0.108301565,0.027126549,-0.09058049,-1.0507262,0.0758657,229.4085,373.1363,0.3827893,0.40739036,0.1592188,0.118493214,inf,inf,inf,inf,1,1,1,1,2,0,2,1,48,1,1,1,0,0
21814272000,21814272000,1036000,41.606704,-86.3556021,-193.0353,344.78708,-372.3995,0.0005788274,3.0122314e-05,0.0,-0.06852268,0.004575932,1.0699682,0.9902824,-0.00041116442,-0.0022498725,0.0029786755,0.0047255335,-0.029675318,-0.12170809,-1.0495969,0.0758657,229.4085,372.64832,0.3633291,0.40549973,0.14617598,0.11581184,inf,inf,inf,inf,1,1,1,1,2,0,2,1,48,1,1,1,0,0
21814776000,21814776000,1036000,41.606704,-86.3556021,-193.06699,344.79538,-371.89352,0.0005788274,3.0122314e-05,0.0,-0.061828982,-0.0024798245,1.0789905,1.006573,-0.00041116442,-0.0022498725,0.0029786755,0.033360235,-0.036064107,-0.08888176,-1.0489172,0.0758657,229.4085,372.14233,0.3886339,0.41196755,0.15741315,0.12085062,inf,inf,inf,inf,1,1,1,1,2,0,2,1,48,1,1,1,0,0
21815272000,21815272000,1036000,41.606704,-86.3556021,-193.10196,344.79865,-371.3964,0.0005788274,3.0122314e-05,0.0,-0.039615087,-0.02023288,1.056207,0.98723495,-0.00041116442,-0.0022498725,0.0029786755,-0.102576405,-0.15527572,-1.3113823,-1.0488822,0.0758657,229.4085,371.6452,0.36737522,0.40925726,0.1445664,0.11733816,inf,inf,inf,inf,1,1,1,1,2,0,2,1,48,1,1,1,0,0
21815776000,21815776000,1036000,41.606704,-86.3556021,-193.12149,344.7973,-370.90424,0.0005788274,3.0122314e-05,0.0,-0.004012401,-0.028961267,1.0627644,0.98731065,-0.00041116442,-0.0022498725,0.0029786755,0.06460937,0.020253526,0.053622697,-1.0487657,0.0758657,229.4085,371.15305,0.37050438,0.41277444,0.14522113,0.118287735,inf,inf,inf,inf,1,1,1,1,2,0,2,1,48,1,1,1,0,0
21816272000,21816272000,1036000,41.606704,-86.3556021,-193.12466,344.78674,-370.40735,0.0005788274,3.0122314e-05,0.0,0.017105294,-0.036169913,1.062763,0.99303406,-0.00041116442,-0.0022498725,0.0029786755,-0.011878896,0.016464708,0.03147771,-1.0489864,0.0758657,229.4085,370.65616,0.3725147,0.41269767,0.14531863,0.11853459,inf,inf,inf,inf,1,1,1,1,2,0,2,1,48,1,1,1,0,0
21816776000,21816776000,1036000,41.606704,-86.3556021,-193.12625,344.7798,-369.9114,0.0005788274,3.0122314e-05,0.0,0.025587376,-0.032322347,1.0607818,0.9894663,-0.00041116442,-0.0022498725,0.0029786755,-0.006320678,0.014860923,0.013373729,-1.0494055,0.0758657,229.4085,370.16022,0.37497187,0.415887,0.14588289,0.119152196,inf,inf,inf,inf,1,1,1,1,2,0,2,1,48,1,1,1,0,0
21817272000,21817272000,1036000,41.606704,-86.3556021,-193.12082,344.76492,-369.41782,0.0005788274,3.0122314e-05,0.0,0.031557668,-0.02873207,1.0549438,0.9888829,-0.00041116442,-0.0022498725,0.0029786755,0.028044794,0.053522244,0.0066356095,-1.0493845,0.0758657,229.4085,369.66663,0.37768632,0.41553366,0.1471594,0.11940216,inf,inf,inf,inf,1,1,1,1,2,0,2,1,48,1,1,1,0,0
21817776000,21817776000,1036000,41.606704,-86.3556021,-193.11147,344.74124,-368.90503,0.0005788274,3.0122314e-05,0.0,0.028514627,-0.023469253,1.0437355,0.99169904,-0.00041116442,-0.0022498725,0.0029786755,-0.13865791,-0.047155447,-0.16683158,-1.0489825,0.0758657,229.4085,369.15384,0.37933066,0.41839296,0.14731316,0.119781755,inf,inf,inf,inf,1,1,1,1,2,0,2,1,48,1,1,1,0,0
21818272000,21818272000,1036000,41.606704,-86.3556021,-193.09955,344.7192,-368.40222,0.0005788274,3.0122314e-05,0.0,0.022025237,-0.004819262,1.0233445,0.98287976,-0.00041116442,-0.0022498725,0.0029786755,0.3653045,0.2650911,0.33116612,-1.0490581,0.0758657,229.4085,368.65103,0.3610096,0.41186285,0.13859865,0.115874596,inf,inf,inf,inf,1,1,1,1,2,0,2,1,48,1,1,1,0,0
21818776000,21818776000,1036000,41.606704,-86.3556021,-193.0884,344.70657,-367.90533,0.0005788274,3.0122314e-05,0.0,0.007134353,0.012911187,1.0314139,0.99059486,-0.00041116442,-0.0022498725,0.0029786755,-0.06927886,0.019162092,0.050064113,-1.0494606,0.0758657,229.4085,368.15414,0.38523766,0.42079127,0.15051343,0.12070297,inf,inf,inf,inf,1,1,1,1,2,0,2,1,48,1,1,1,0,0
21819272000,21819272000,1036000,41.606704,-86.3556021,-193.07741,344.7021,-367.40924,0.0005788274,3.0122314e-05,0.0,-0.0008695954,0.022196487,1.0327998,0.9945772,-0.00041116442,-0.0022498725,0.0029786755,-0.06559765,0.041647706,0.09765282,-1.0496199,0.0758657,229.4085,367.65805,0.36528027,0.41668049,0.14059374,0.11692209,inf,inf,inf,inf,1,1,1,1,2,0,2,1,48,1,1,1,0,0
21819768000,21819768000,1036000,41.606704,-86.3556021,-193.05992,344.70135,-366.9201,0.0005788274,3.0122314e-05,0.0,-0.008487635,0.026373193,1.040665,0.99744993,-0.00041116442,-0.0022498725,0.0029786755,0.01576317,0.052731615,0.046552096,-1.04927,0.0758657,229.4085,367.1689,0.36787662,0.41595194,0.14215682,0.11722769,inf,inf,inf,inf,1,1,1,1,2,0,2,1,48,1,1,1,0,0
21820272000,21820272000,1036000,41.606704,-86.3556021,-193.05072,344.7051,-366.41794,0.0005788274,3.0122314e-05,0.0,-0.026345093,0.025319556,1.0447311,0.9989583,-0.00041116442,-0.0022498725,0.0029786755,-0.008180094,0.037470564,-0.0026133542,-1.0493876,0.0758657,229.4085,366.66675,0.36961842,0.41557425,0.14256378,0.1173625,inf,inf,inf,inf,1,1,1,1,2,0,2,1,48,1,1,1,0,0
21820768000,21820768000,1036000,41.606704,-86.3556021,-193.04823,344.7119,-365.91824,0.0005788274,3.0122314e-05,0.0,-0.02943823,0.024087122,1.0487922,1.0054121,-0.00041116442,-0.0022498725,0.0029786755,-0.17828582,-0.020361438,-0.13101013,-1.0492629,0.0758657,229.4085,366.16705,0.37162673,0.41754505,0.14361024,0.11786135,inf,inf,inf,inf,1,1,1,1,2,0,2,1,48,1,1,1,0,0
21821272000,21821272000,1036000,41.606704,-86.3556021,-193.04774,344.71213,-365.40585,0.0005788274,3.0122314e-05,0.0,-0.035422407,0.014982244,1.0457104,1.0092075,-0.00041116442,-0.0022498725,0.0029786755,-0.2624388,-0.14812002,1.3825287,-1.0492836,0.0758657,229.4085,365.65466,0.3753022,0.42017844,0.14578664,0.11874547,inf,inf,inf,inf,1,1,1,1,2,0,2,1,48,1,1,1,0,0
21821776000,21821776000,1036000,41.606704,-86.3556021,-193.04985,344.71274,-364.9019,0.0005788274,3.0122314e-05,0.0,-0.03208067,0.019417474,1.0347172,0.9977,-0.00041116442,-0.0022498725,0.0029786755,-0.0061591025,-0.0024966758,0.043517847,-1.0491179,0.0758657,229.4085,365.1507,0.37736905,0.41954592,0.14643541,0.118919045,inf,inf,inf,inf,1,1,1,1,2,0,2,1,48,1,1,1,0,0
21822272000,21822272000,1036000,41.606704,-86.3556021,-193.04413,344.71237,-364.40674,0.0005788274,3.0122314e-05,0.0,-0.031491637,0.011545559,1.0408124,1.0036901,-0.00041116442,-0.0022498725,0.0029786755,-0.012440064,-0.09235051,-0.03851956,-1.0491358,0.0758657,229.4085,364.65555,0.35967758,0.4155,0.13800006,0.11554719,inf,inf,inf,inf,1,1,1,1,2,0,2,1,48,1,1,1,0,0
21822776000,21822776000,1036000,41.606704,-86.3556021,-193.04236,344.71307,-363.89447,0.0005788274,3.0122314e-05,0.0,-0.036645576,0.012761857,1.033871,1.0030546,-0.00041116442,-0.0022498725,0.0029786755,0.027263474,0.01403475,-0.00096025673,-1.048997,0.0758657,229.4085,364.14328,0.38249558,0.4208655,0.14869489,0.119817786,inf,inf,inf,inf,1,1,1,1,2,0,2,1,48,1,1,1,0,0
21823272000,21823272000,1036000,41.606704,-86.3556021,-193.03845,344.70993,-363.39645,0.0005788274,3.0122314e-05,0.0,-0.037067134,0.011047248,1.0270741,0.9975808,-0.00041116442,-0.0022498725,0.0029786755,0.03314396,0.0672642,-0.060627297,-1.0489556,0.0758657,229.4085,363.64526,0.3633467,0.41671818,0.13943614,0.1162798,inf,inf,inf,inf,1,1,1,1,2,0,2,1,48,1,1,1,0,0
21823776000,21823776000,1036000,41.606704,-86.3556021,-193.0357,344.7135,-362.88614,0.0005788274,3.0122314e-05,0.0,-0.035031173,0.014696864,1.0244473,1.0003918,-0.00041116442,-0.0022498725,0.0029786755,0.044889748,0.05806842,-0.110326394,-1.0491433,0.0758657,229.4085,363.13495,0.36689386,0.41630024,0.14155412,0.11687767,inf,inf,inf,inf,1,1,1,1,2,0,2,1,48,1,1,1,0,0
21824272000,21824272000,1036000,41.606704,-86.3556021,-193.0406,344.71732,-362.381,0.0005788274,3.0122314e-05,0.0,-0.036413062,0.014189117,1.0215751,1.0054684,-0.00041116442,-0.0022498725,0.0029786755,0.04957666,0.14152856,-0.22890423,-1.0488248,0.0758657,229.4085,362.62982,0.36820608,0.4179542,0.1417753,0.11724762,inf,inf,inf,inf,1,1,1,1,2,0,2,1,48,1,1,1,0,0
21824776000,21824776000,1036000,41.606704,-86.3556021,-193.05063,344.72247,-361.86667,0.0005788274,3.0122314e-05,0.0,-0.03547101,0.015669078,0.99897075,0.99252254,-0.00041116442,-0.0022498725,0.0029786755,-0.22833204,-0.04039159,-1.2768741,-1.0486847,0.0758657,229.4085,362.11548,0.37119275,0.4172941,0.14333251,0.11765504,inf,inf,inf,inf,1,1,1,1,2,0,2,1,48,1,1,1,0,0
21825272000,21825272000,1036000,41.606704,-86.3556021,-193.06175,344.72736,-361.36984,0.0005788274,3.0122314e-05,0.0,-0.028354913,0.018933265,1.0009162,0.99596286,-0.00041116442,-0.0022498725,0.0029786755,-0.029212218,-0.011826689,0.10169942,-1.0489306,0.0758657,229.4085,361.61865,0.37306252,0.4190124,0.14400408,0.11814795,inf,inf,inf,inf,1,1,1,1,2,0,2,1,48,1,1,1,0,0
21825768000,21825768000,1036000,41.606704,-86.3556021,-193.07198,344.72824,-360.87216,0.0005788274,3.0122314e-05,0.0,-0.015606959,0.006731035,1.0027827,0.9989385,-0.00041116442,-0.0022498725,0.0029786755,-0.020497387,-0.018929822,-0.12756982,-1.0487237,0.0758657,229.4085,361.12097,0.3746519,0.42062822,0.14447127,0.11855739,inf,inf,inf,inf,1,1,1,1,2,0,2,1,48,1,1,1,0,0
21826272000,21826272000,1036000,41.606704,-86.3556021,-193.07906,344.7211,-360.36234,0.0005788274,3.0122314e-05,0.0,-0.008821564,0.0077397763,0.99756217,0.99903566,-0.00041116442,-0.0022498725,0.0029786755,0.045240484,0.012808811,-0.09286875,-1.0489042,0.0758657,229.4085,360.61115,0.35815737,0.41418365,0.1367922,0.11509983,inf,inf,inf,inf,1,1,1,1,2,0,2,1,48,1,1,1,0,0
21826776000,21826776000,1036000,41.606704,-86.3556021,-193.08545,344.71573,-359.85034,0.0005788274,3.0122314e-05,0.0,-0.001440602,0.008510979,0.986568,0.9948739,-0.00041116442,-0.0022498725,0.0029786755,0.01489733,0.028940275,-0.07970358,-1.0490853,0.0758657,229.4085,360.09915,0.38093227,0.42231312,0.1475317,0.11974633,inf,inf,inf,inf,1,1,1,1,2,0,2,1,48,1,1,1,0,0
21827272000,21827272000,1036000,41.606704,-86.3556021,-193.08794,344.70346,-359.34406,0.0005788274,3.0122314e-05,0.0,0.0010873618,0.014541426,0.98332226,1.0012939,-0.00041116442,-0.0022498725,0.0029786755,0.0032573976,0.04436317,-0.08226099,-1.0488715,0.0758657,229.4085,359.59286,0.3622454,0.41507247,0.13855301,0.11590463,inf,inf,inf,inf,1,1,1,1,2,0,2,1,48,1,1,1,0,0
21827768000,21827768000,1036000,41.606704,-86.3556021,-193.09276,344.6939,-358.84683,0.0005788274,3.0122314e-05,0.0,0.0012207677,0.028569864,0.96788657,0.9880995,-0.00041116442,-0.0022498725,0.0029786755,-0.1912086,0.021807192,-1.3251473,-1.0488372,0.0758657,229.4085,359.09564,0.3858993,0.422913,0.1499184,0.1205944,inf,inf,inf,inf,1,1,1,1,2,0,2,1,48,1,1,1,0,0
21828272000,21828272000,1036000,41.606704,-86.3556021,-193.08739,344.68808,-358.35254,0.0005788274,3.0122314e-05,0.0,0.0070506684,0.030002588,0.9793193,0.9925212,-0.00041116442,-0.0022498725,0.0029786755,-0.00070364616,0.04436258,0.047436852,-1.0491403,0.0758657,229.4085,358.60135,0.3662272,0.41899318,0.14007519,0.11701505,inf,inf,inf,inf,1,1,1,1,2,0,2,1,48,1,1,1,0,0
21828768000,21828768000,1036000,41.606704,-86.3556021,-193.0841,344.68396,-357.8555,0.0005788274,3.0122314e-05,0.0,0.001719196,0.03886621,0.98035413,0.9951865,-0.00041116442,-0.0022498725,0.0029786755,-0.0011696353,0.08026675,0.07595767,-1.0488818,0.0758657,229.4085,358.1043,0.36867428,0.41775984,0.14144327,0.11730595,inf,inf,inf,inf,1,1,1,1,2,0,2,1,48,1,1,1,0,0
21829272000,21829272000,1036000,41.606704,-86.3556021,-193.07918,344.68472,-357.3482,0.0005788274,3.0122314e-05,0.0,-2.7708318e-05,0.041701604,0.9788983,0.9969161,-0.00041116442,-0.0022498725,0.0029786755,0.06358885,0.09219919,-0.04488515,-1.0490429,0.0758657,229.4085,357.59702,0.37145975,0.41718826,0.14269462,0.11771467,inf,inf,inf,inf,1,1,1,1,2,0,2,1,48,1,1,1,0,0
21829776000,21829776000,1036000,41.606704,-86.3556021,-193.08234,344.67862,-356.84314,0.0005788274,3.0122314e-05,0.0,-0.0073997364,0.041213747,0.982692,1.0018584,-0.00041116442,-0.0022498725,0.0029786755,0.018694166,0.042021345,-0.09793701,-1.0491781,0.0758657,229.4085,357.09195,0.37402362,0.41959593,0.14379458,0.1184121,inf,inf,inf,inf,1,1,1,1,2,0,2,1,48,1,1,1,0,0
21830272000,21830272000,1036000,41.606704,-86.3556021,-193.08363,344.68146,-356.34644,0.0005788274,3.0122314e-05,0.0,-0.0031158933,0.04310032,0.9784892,0.9975303,-0.00041116442,-0.0022498725,0.0029786755,-0.051045906,0.005625425,-0.18590601,-1.048976,0.0758657,229.4085,356.59525,0.37685397,0.42148376,0.14538524,0.11911267,inf,inf,inf,inf,1,1,1,1,2,0,2,1,48,1,1,1,0,0
21830776000,21830776000,1036000,41.606704,-86.3556021,-193.08362,344.68768,-355.83826,0.0005788274,3.0122314e-05,0.0,-0.0003644832,0.04208682,0.9830027,1.0065459,-0.00041116442,-0.0022498725,0.0029786755,-0.23193304,-0.15264602,1.33304,-1.0490944,0.0758657,229.4085,356.08707,0.37862647,0.4207791,0.14570686,0.11926678,inf,inf,inf,inf,1,1,1,1,2,0,2,1,48,1,1,1,0,0
21831272000,21831272000,1036000,41.606704,-86.3556021,-193.07997,344.6879,-355.34967,0.0005788274,3.0122314e-05,0.0,0.00014095695,0.039075207,0.9738559,0.9921007,-0.00041116442,-0.0022498725,0.0029786755,-0.011324942,0.027483573,0.09865213,-1.0490395,0.0758657,229.4085,355.59848,0.3605414,0.41668624,0.13725351,0.11584472,inf,inf,inf,inf,1,1,1,1,2,0,2,1,48,1,1,1,0,0
21831768000,21831768000,1036000,41.606704,-86.3556021,-193.08014,344.696,-354.8638,0.0005788274,3.0122314e-05,0.0,-0.007786564,0.039265756,0.9840093,0.9943808,-0.00041116442,-0.0022498725,0.0029786755,-0.042598266,-0.028974479,0.0052023046,-1.0492911,0.0758657,229.4085,355.1126,0.38404062,0.42170006,0.14856733,0.12025573,inf,inf,inf,inf,1,1,1,1,2,0,2,1,48,1,1,1,0,0
21832272000,21832272000,1036000,41.606704,-86.3556021,-193.0785,344.69977,-354.3624,0.0005788274,3.0122314e-05,0.0,-0.011686556,0.025327468,0.9898987,0.99823576,-0.00041116442,-0.0022498725,0.0029786755,0.0009127585,-0.047023106,0.006096374,-1.0493919,0.0758657,229.4085,354.6112,0.36499766,0.41518658,0.13923281,0.11647728,inf,inf,inf,inf,1,1,1,1,2,0,2,1,48,1,1,1,0,0
21832776000,21832776000,1036000,41.606704,-86.3556021,-193.07503,344.7,-353.86978,0.0005788274,3.0122314e-05,0.0,-0.011791814,0.025447594,0.99993914,0.99951726,-0.00041116442,-0.0022498725,0.0029786755,-0.08544468,0.059375897,0.09580135,-1.0494914,0.0758657,229.4085,354.1186,0.3683252,0.4178256,0.1411134,0.117386475,inf,inf,inf,inf,1,1,1,1,2,0,2,1,48,1,1,1,0,0
21833272000,21833272000,1036000,41.606704,-86.3556021,-193.0695,344.70694,-353.36798,0.0005788274,3.0122314e-05,0.0,-0.011300465,0.024409795,1.0016898,1.0051663,-0.00041116442,-0.0022498725,0.0029786755,-0.04219593,-0.042510554,-0.17711246,-1.0493749,0.0758657,229.4085,353.6168,0.36941177,0.41660985,0.14115773,0.11737457,inf,inf,inf,inf,1,1,1,1,2,0,2,1,48,1,1,1,0,0
21833768000,21833768000,1036000,41.606704,-86.3556021,-193.06105,344.71347,-352.87442,0.0005788274,3.0122314e-05,0.0,-0.013542102,0.020800076,1.0024981,1.0050064,-0.00041116442,-0.0022498725,0.0029786755,-0.22862057,-0.20512466,1.4266742,-1.0492198,0.0758657,229.4085,353.12323,0.37150237,0.41849858,0.14227119,0.11793306,inf,inf,inf,inf,1,1,1,1,2,0,2,1,48,1,1,1,0,0
21834272000,21834272000,1036000,41.606704,-86.3556021,-193.05266,344.71555,-352.37796,0.0005788274,3.0122314e-05,0.0,-0.01957698,0.01714094,1.0036645,0.9995912,-0.00041116442,-0.0022498725,0.0029786755,-0.08548661,-0.029642943,0.060864657,-1.0492077,0.0758657,229.4085,352.62677,0.37529957,0.42108735,0.14445572,0.118875355,inf,inf,inf,inf,1,1,1,1,2,0,2,1,48,1,1,1,0,0
21834776000,21834776000,1036000,41.606704,-86.3556021,-193.05412,344.72168,-351.877,0.0005788274,3.0122314e-05,0.0,-0.027967643,0.01694672,1.006449,0.9993631,-0.00041116442,-0.0022498725,0.0029786755,-0.040328126,-0.018352928,0.097950846,-1.0488148,0.0758657,229.4085,352.12582,0.37734032,0.4204356,0.14500618,0.11907379,inf,inf,inf,inf,1,1,1,1,2,0,2,1,48,1,1,1,0,0
21835272000,21835272000,1036000,41.606704,-86.3556021,-193.06027,344.72195,-351.38992,0.0005788274,3.0122314e-05,0.0,-0.02633677,0.008773431,1.0139308,1.0002191,-0.00041116442,-0.0022498725,0.0029786755,0.0107538905,0.05952726,0.0658789,-1.048683,0.0758657,229.4085,351.63873,0.35966465,0.41634342,0.13674527,0.11569042,inf,inf,inf,inf,1,1,1,1,2,0,2,1,48,1,1,1,0,0
21835776000,21835776000,1036000,41.606704,-86.3556021,-193.06491,344.72125,-350.88254,0.0005788274,3.0122314e-05,0.0,-0.022599906,0.010111717,1.0128874,1.0017718,-0.00041116442,-0.0022498725,0.0029786755,0.08307279,0.030594258,-0.0454337,-1.0490924,0.0758657,229.4085,351.13135,0.38238683,0.42165244,0.1472587,0.11996179,inf,inf,inf,inf,1,1,1,1,2,0,2,1,48,1,1,1,0,0
21836272000,21836272000,1036000,41.606704,-86.3556021,-193.0631,344.72253,-350.39365,0.0005788274,3.0122314e-05,0.0,-0.017229423,0.015364827,1.0168955,0.9995515,-0.00041116442,-0.0022498725,0.0029786755,0.041725576,-0.030478682,-0.086139016,-1.0490732,0.0758657,229.4085,350.64246,0.3632385,0.41456679,0.13811803,0.11606748,inf,inf,inf,inf,1,1,1,1,2,0,2,1,48,1,1,1,0,0
21836776000,21836776000,1036000,41.606704,-86.3556021,-193.06178,344.7243,-349.88937,0.0005788274,3.0122314e-05,0.0,-0.017426029,0.015538518,1.0179858,1.0018141,-0.00041116442,-0.0022498725,0.0029786755,0.06537081,0.036713507,-0.10220619,-1.0488026,0.0758657,229.4085,350.13818,0.36668858,0.41717365,0.14019944,0.11700954,inf,inf,inf,inf,1,1,1,1,2,0,2,1,48,1,1,1,0,0
21837272000,21837272000,1036000,41.606704,-86.3556021,-193.06482,344.72766,-349.38968,0.0005788274,3.0122314e-05,0.0,-0.024055336,0.011218863,1.011503,0.9978079,-0.00041116442,-0.0022498725,0.0029786755,-0.04463499,-0.05039165,-1.243284,-1.0489582,0.0758657,229.4085,349.6385,0.36799374,0.41602498,0.14049931,0.117067836,inf,inf,inf,inf,1,1,1,1,2,0,2,1,48,1,1,1,0,0
21837776000,21837776000,1036000,41.606704,-86.3556021,-193.06381,344.71884,-348.88016,0.0005788274,3.0122314e-05,0.0,-0.01784575,0.009693427,1.0151945,1.0062985,-0.00041116442,-0.0022498725,0.0029786755,-0.053430993,0.047167566,0.061533343,-1.0490521,0.0758657,229.4085,349.12897,0.3709568,0.4185056,0.14206438,0.11785069,inf,inf,inf,inf,1,1,1,1,2,0,2,1,48,1,1,1,0,0
21838272000,21838272000,1036000,41.606704,-86.3556021,-193.06265,344.71277,-348.37112,0.0005788274,3.0122314e-05,0.0,-0.01983103,0.017727062,1.0016156,1.003316,-0.00041116442,-0.0022498725,0.0029786755,0.01012288,0.09495705,0.0032763295,-1.0490177,0.0758657,229.4085,348.61993,0.37281665,0.42027292,0.14286721,0.11833583,inf,inf,inf,inf,1,1,1,1,2,0,2,1,48,1,1,1,0,0
21838776000,21838776000,1036000,41.606704,-86.3556021,-193.05531,344.70383,-347.85944,0.0005788274,3.0122314e-05,0.0,-0.020512342,0.017707607,0.986106,0.9942139,-0.00041116442,-0.0022498725,0.0029786755,-0.024828184,0.0067828177,-0.0064513343,-1.0488077,0.0758657,229.4085,348.10825,0.37511584,0.41951066,0.14383559,0.11856306,inf,inf,inf,inf,1,1,1,1,2,0,2,1,48,1,1,1,0,0
21839272000,21839272000,1036000,41.606704,-86.3556021,-193.04968,344.69672,-347.3702,0.0005788274,3.0122314e-05,0.0,-0.029770536,0.024753962,0.9925075,0.9955161,-0.00041116442,-0.0022498725,0.0029786755,-0.051092476,-0.004027615,-0.047084935,-1.0490004,0.0758657,229.4085,347.61902,0.35799253,0.4154043,0.13599655,0.11524479,inf,inf,inf,inf,1,1,1,1,2,0,2,1,48,1,1,1,0,0
21839776000,21839776000,1036000,41.606704,-86.3556021,-193.05203,344.69635,-346.86578,0.0005788274,3.0122314e-05,0.0,-0.03250124,0.028863797,0.99749523,1.0017449,-0.00041116442,-0.0022498725,0.0029786755,-0.043532122,-0.006873507,-0.15597795,-1.0489315,0.0758657,229.4085,347.1146,0.38065675,0.4205636,0.14657295,0.11953612,inf,inf,inf,inf,1,1,1,1,2,0,2,1,48,1,1,1,0,0
21840272000,21840272000,1036000,41.606704,-86.3556021,-193.05125,344.68857,-346.36908,0.0005788274,3.0122314e-05,0.0,-0.027786704,0.030933088,0.99600136,1.0013542,-0.00041116442,-0.0022498725,0.0029786755,0.31702876,0.13476285,0.23844925,-1.0489455,0.0758657,229.4085,346.6179,0.3620722,0.41633183,0.13778421,0.116043426,inf,inf,inf,inf,1,1,1,1,2,0,2,1,48,1,1,1,0,0
21840768000,21840768000,1036000,41.606704,-86.3556021,-193.05714,344.6836,-345.8652,0.0005788274,3.0122314e-05,0.0,-0.034861203,0.034169775,0.9886014,1.0001619,-0.00041116442,-0.0022498725,0.0029786755,-0.074797794,0.08903971,0.058862314,-1.0489317,0.0758657,229.4085,346.114,0.38560694,0.42416212,0.14906476,0.12072286,inf,inf,inf,inf,1,1,1,1,2,0,2,1,48,1,1,1,0,0
21841272000,21841272000,1036000,41.606704,-86.3556021,-193.06549,344.6851,-345.35587,0.0005788274,3.0122314e-05,0.0,-0.033594362,0.039619915,0.9822766,0.9988303,-0.00041116442,-0.0022498725,0.0029786755,-0.013307633,0.017977811,0.028250674,-1.0488992,0.0758657,229.4085,345.60468,0.36615935,0.41729197,0.13956584,0.11683178,inf,inf,inf,inf,1,1,1,1,2,0,2,1,48,1,1,1,0,0
21841768000,21841768000,1036000,41.606704,-86.3556021,-193.06842,344.68597,-344.85455,0.0005788274,3.0122314e-05,0.0,-0.028022928,0.03790317,0.9745532,0.99614114,-0.00041116442,-0.0022498725,0.0029786755,0.051577855,-0.016996767,-0.016721029,-1.0492053,0.0758657,229.4085,345.10336,0.36859298,0.41624886,0.14099213,0.11716251,inf,inf,inf,inf,1,1,1,1,2,0,2,1,48,1,1,1,0,0
21842272000,21842272000,1036000,41.606704,-86.3556021,-193.07028,344.6955,-344.36313,0.0005788274,3.0122314e-05,0.0,-0.0254947,0.039277934,0.9791217,0.991027,-0.00041116442,-0.0022498725,0.0029786755,0.06985029,0.0030882359,0.081917204,-1.0492411,0.0758657,229.4085,344.61194,0.37136793,0.4187478,0.14224957,0.11792987,inf,inf,inf,inf,1,1,1,1,2,0,2,1,48,1,1,1,0,0
21842776000,21842776000,1036000,41.606704,-86.3556021,-193.05818,344.70322,-343.8666,0.0005788274,3.0122314e-05,0.0,-0.020095922,0.03338561,0.99503756,1.0001637,-0.00041116442,-0.0022498725,0.0029786755,-0.07264015,0.07470809,-0.24438654,-1.0491794,0.0758657,229.4085,344.11542,0.37391824,0.4181372,0.14329137,0.11825415,inf,inf,inf,inf,1,1,1,1,2,0,2,1,48,1,1,1,0,0
21843272000,21843272000,1036000,41.606704,-86.3556021,-193.04008,344.7122,-343.37775,0.0005788274,3.0122314e-05,0.0,-0.025202027,0.02459552,1.007038,1.0052611,-0.00041116442,-0.0022498725,0.0029786755,-0.28885776,-0.13390464,1.4516542,-1.0493692,0.0758657,229.4085,343.62656,0.37673232,0.41999778,0.14485808,0.11893946,inf,inf,inf,inf,1,1,1,1,2,0,2,1,48,1,1,1,0,0
21843776000,21843776000,1036000,41.606704,-86.3556021,-193.03137,344.7166,-342.8731,0.0005788274,3.0122314e-05,0.0,-0.035555933,0.0180508,1.0047808,1.003504,-0.00041116442,-0.0022498725,0.0029786755,-0.089467645,-0.025642341,0.041100133,-1.048991,0.0758657,229.4085,343.12192,0.37849995,0.41928744,0.14522794,0.119084135,inf,inf,inf,inf,1,1,1,1,2,0,2,1,48,1,1,1,0,0
21844272000,21844272000,1036000,41.606704,-86.3556021,-193.02281,344.71588,-342.36896,0.0005788274,3.0122314e-05,0.0,-0.043332525,0.0115912715,0.99598074,1.0013742,-0.00041116442,-0.0022498725,0.0029786755,0.00207592,0.05380356,0.012446132,-1.0490681,0.0758657,229.4085,342.61777,0.36046097,0.41532007,0.13687481,0.115694985,inf,inf,inf,inf,1,1,1,1,2,0,2,1,48,1,1,1,0,0
21844768000,21844768000,1036000,41.606704,-86.3556021,-193.02551,344.71774,-341.8731,0.0005788274,3.0122314e-05,0.0,-0.053158823,0.008915877,0.99243015,0.9981492,-0.00041116442,-0.0022498725,0.0029786755,-0.00540583,-0.022452801,0.05892192,-1.0489141,0.0758657,229.4085,342.12192,0.38382944,0.4202238,0.1481579,0.1200545,inf,inf,inf,inf,1,1,1,1,2,0,2,1,48,1,1,1,0,0
21845272000,21845272000,1036000,41.606704,-86.3556021,-193.03732,344.71716,-341.37793,0.0005788274,3.0122314e-05,0.0,-0.050285168,0.007925439,0.99665916,0.99487895,-0.00041116442,-0.0022498725,0.0029786755,0.01639488,-0.014810993,-0.005514424,-1.0486583,0.0758657,229.4085,341.62674,0.36486366,0.41664007,0.13896655,0.116616085,inf,inf,inf,inf,1,1,1,1,2,0,2,1,48,1,1,1,0,0
21845776000,21845776000,1036000,41.606704,-86.3556021,-193.04152,344.71838,-340.87802,0.0005788274,3.0122314e-05,0.0,-0.041320737,0.009691186,1.0044144,0.99943614,-0.00041116442,-0.0022498725,0.0029786755,-0.02327833,-0.012813734,-0.100749604,-1.0488282,0.0758657,229.4085,341.12683,0.3681937,0.4163121,0.14082648,0.11718404,inf,inf,inf,inf,1,1,1,1,2,0,2,1,48,1,1,1,0,0
21846272000,21846272000,1036000,41.606704,-86.3556021,-193.05042,344.72302,-340.3872,0.0005788274,3.0122314e-05,0.0,-0.037683714,0.009711071,1.012354,1.003212,-0.00041116442,-0.0022498725,0.0029786755,0.10723992,0.006474948,-0.12939242,-1.0488948,0.0758657,229.4085,340.63602,0.36923355,0.41812643,0.1408598,0.11752747,inf,inf,inf,inf,1,1,1,1,2,0,2,1,48,1,1,1,0,0
21846776000,21846776000,1036000,41.606704,-86.3556021,-193.05695,344.73236,-339.88135,0.0005788274,3.0122314e-05,0.0,-0.030098185,0.009482784,1.0082994,1.0007823,-0.00041116442,-0.0022498725,0.0029786755,-0.11249299,-0.0311768,-1.2592218,-1.0486351,0.0758657,229.4085,340.13016,0.3719758,0.41771534,0.14225149,0.11793046,inf,inf,inf,inf,1,1,1,1,2,0,2,1,48,1,1,1,0,0
21847272000,21847272000,1036000,41.606704,-86.3556021,-193.06303,344.73483,-339.37897,0.0005788274,3.0122314e-05,0.0,-0.028696187,-0.003914958,1.003154,1.0010825,-0.00041116442,-0.0022498725,0.0029786755,-0.078500405,-0.01673312,-0.037826657,-1.0485853,0.0758657,229.4085,339.62778,0.3749613,0.41972816,0.1440723,0.118676685,inf,inf,inf,inf,1,1,1,1,2,0,2,1,48,1,1,1,0,0
21847768000,21847768000,1036000,41.606704,-86.3556021,-193.06776,344.73438,-338.89105,0.0005788274,3.0122314e-05,0.0,-0.02108205,-0.003813003,0.997794,0.9894237,-0.00041116442,-0.0022498725,0.0029786755,0.07037785,0.0033704848,0.07429992,-1.0486587,0.0758657,229.4085,339.13986,0.37632334,0.42144936,0.14439324,0.119042166,inf,inf,inf,inf,1,1,1,1,2,0,2,1,48,1,1,1,0,0
21848272000,21848272000,1036000,41.606704,-86.3556021,-193.06805,344.7326,-338.3872,0.0005788274,3.0122314e-05,0.0,-0.015157643,-0.0018575812,1.0089713,1.0021805,-0.00041116442,-0.0022498725,0.0029786755,0.020722808,0.0203194,-0.043080248,-1.0491868,0.0758657,229.4085,338.63602,0.35946712,0.41495582,0.13656734,0.11549701,inf,inf,inf,inf,1,1,1,1,2,0,2,1,48,1,1,1,0,0
21848776000,21848776000,1036000,41.606704,-86.3556021,-193.0717,344.72958,-337.88293,0.0005788274,3.0122314e-05,0.0,-0.013267925,0.00042120402,1.0043298,0.99764645,-0.00041116442,-0.0022498725,0.0029786755,-0.06543284,0.019666104,-0.06686623,-1.04893,0.0758657,229.4085,338.13174,0.38216153,0.42313272,0.14704704,0.1200893,inf,inf,inf,inf,1,1,1,1,2,0,2,1,48,1,1,1,0,0
21849272000,21849272000,1036000,41.606704,-86.3556021,-193.07283,344.71597,-337.39163,0.0005788274,3.0122314e-05,0.0,-0.008258807,0.0034469587,1.0084971,0.9978624,-0.00041116442,-0.0022498725,0.0029786755,-0.0450159,-0.06024746,-0.118691534,-1.0490123,0.0758657,229.4085,337.64044,0.3630901,0.41574433,0.13798457,0.11613289,inf,inf,inf,inf,1,1,1,1,2,0,2,1,48,1,1,1,0,0
21849776000,21849776000,1036000,41.606704,-86.3556021,-193.07791,344.70654,-336.8963,0.0005788274,3.0122314e-05,0.0,-0.008286662,0.010798099,1.0160133,0.9979933,-0.00041116442,-0.0022498725,0.0029786755,0.04757477,0.07975624,0.21355219,-1.0489136,0.0758657,229.4085,337.1451,0.36655757,0.41808963,0.14002967,0.11702648,inf,inf,inf,inf,1,1,1,1,2,0,2,1,48,1,1,1,0,0
21850272000,21850272000,1036000,41.606704,-86.3556021,-193.0815,344.70605,-336.4002,0.0005788274,3.0122314e-05,0.0,-0.0030795156,0.021980897,1.020962,1.0022218,-0.00041116442,-0.0022498725,0.0029786755,0.0010842575,0.027691936,0.040319685,-1.049175,0.0758657,229.4085,336.64902,0.36788172,0.41661572,0.14032821,0.117030576,inf,inf,inf,inf,1,1,1,1,2,0,2,1,48,1,1,1,0,0
21850768000,21850768000,1036000,41.606704,-86.3556021,-193.0835,344.70236,-335.9076,0.0005788274,3.0122314e-05,0.0,-0.006979169,0.025606375,1.0187495,0.99723035,-0.00041116442,-0.0022498725,0.0029786755,0.0633962,0.00810671,0.01521216,-1.049122,0.0758657,229.4085,336.1564,0.37015978,0.41833627,0.14155829,0.11762412,inf,inf,inf,inf,1,1,1,1,2,0,2,1,48,1,1,1,0,0
