timestamp,timestamp_sample,ref_timestamp,ref_lat,ref_lon,x,y,z,delta_xy[0],delta_xy[1],delta_z,vx,vy,vz,z_deriv,delta_vxy[0],delta_vxy[1],delta_vz,ax,ay,az,heading,delta_heading,ref_alt,dist_bottom,eph,epv,evh,evv,vxy_max,vz_max,hagl_min,hagl_max,xy_valid,z_valid,v_xy_valid,v_z_valid,xy_reset_counter,z_reset_counter,vxy_reset_counter,vz_reset_counter,heading_reset_counter,heading_good_for_control,xy_global,z_global,dist_bottom_valid,dist_bottom_sensor_bitfield
21726760000,21726760000,1036000,41.606704,-86.3556021,-0.66705024,-1.1546059,0.13724974,0.00058025087,2.2485685e-05,0.0,-0.0046275104,-0.004778787,-0.0020073245,-0.002389356,-0.00040349647,-0.0023179057,0.002978221,-0.027293706,-0.016596608,-0.022838885,-1.0661452,0.06311534,229.4085,0.10022849,0.049090795,0.05537438,0.01217457,0.008701059,inf,inf,inf,inf,1,1,1,1,2,0,2,1,47,0,1,1,1,0
21727264000,21727264000,1036000,41.606704,-86.3556021,-0.6659988,-1.1548942,0.13725244,0.00058025087,2.2485685e-05,0.0,-0.0031869921,-0.001926654,-0.001458619,-0.0013589759,-0.00040349647,-0.0023179057,0.002978221,-0.010834473,-0.016514756,-0.08407707,-1.0659711,0.06311534,229.4085,0.10026251,0.049058482,0.055337735,0.018450035,0.013338552,inf,inf,inf,inf,1,1,1,1,2,0,2,1,47,0,1,1,1,0
21727768000,21727768000,1036000,41.606704,-86.3556021,-0.66567093,-1.1549243,0.13773178,0.00058025087,2.2485685e-05,0.0,-0.0031265577,-0.0026880517,-0.0003505967,4.518941e-05,-0.00040349647,-0.0023179057,0.002978221,-0.01667146,0.021845687,-0.042733796,-1.065933,0.06311534,229.4085,0.100033745,0.049049985,0.05529102,0.009055029,0.0064424216,inf,inf,inf,inf,1,1,1,1,2,0,2,1,47,0,1,1,1,0
21728264000,21728264000,1036000,41.606704,-86.3556021,-0.6652681,-1.1540413,0.13794784,0.00058025087,2.2485685e-05,0.0,-0.0017315473,-0.0010092828,-0.00045326055,-0.0002086389,-0.00040349647,-0.0023179057,0.002978221,-0.0016694621,-0.047778163,-0.010051827,-1.0659448,0.06311534,229.4085,0.1,0.049003985,0.055248104,0.015849564,0.011400699,inf,inf,inf,inf,1,1,1,1,2,0,2,1,47,0,1,1,1,0
21728760000,21728760000,1036000,41.606704,-86.3556021,-0.6658222,-1.1546793,0.13806118,0.00058025087,2.2485685e-05,0.0,-0.005706355,-0.0038651899,-0.0008958842,-0.00069977116,-0.00040349647,-0.0023179057,0.002978221,0.029876558,0.015671017,0.04484312,-1.0659354,0.06311534,229.4085,0.1,0.049019862,0.055227492,0.020821203,0.015115773,inf,inf,inf,inf,1,1,1,1,2,0,2,1,47,0,1,1,1,0
21729264000,21729264000,1036000,41.606704,-86.3556021,-0.6656042,-1.1545945,0.13918734,0.00058025087,2.2485685e-05,0.0,-0.00053548516,-0.0030483871,0.0021673003,0.0021122904,-0.00040349647,-0.0023179057,0.002978221,-0.02257298,0.0817686,-0.006978463,-1.0661588,0.06311534,229.4085,0.1,0.048957918,0.055162825,0.012847073,0.009192707,inf,inf,inf,inf,1,1,1,1,2,0,2,1,47,0,1,1,1,0
21729760000,21729760000,1036000,41.606704,-86.3556021,-0.66539603,-1.1547244,0.13854325,0.00058025087,2.2485685e-05,0.0,-0.0015804784,-0.005263955,0.00041542092,-0.00011754486,-0.00040349647,-0.0023179057,0.002978221,-0.054532368,-0.101551786,0.06929406,-1.0662984,0.06311534,229.4085,0.1,0.04895488,0.055133406,0.018461028,0.013342154,inf,inf,inf,inf,1,1,1,1,2,0,2,1,47,0,1,1,1,0
21730264000,21730264000,1036000,41.606704,-86.3556021,-0.6645833,-1.1550039,0.13718075,0.00058025087,2.2485685e-05,0.0,0.0018472741,-0.002491634,-0.0010241331,-0.00067853456,-0.00040349647,-0.0023179057,0.002978221,0.108653866,-0.029370252,-0.026610741,-1.0663439,0.06311534,229.4085,0.1009039,0.04891732,0.055087324,0.009055878,0.0064424183,inf,inf,inf,inf,1,1,1,1,2,0,2,1,47,0,1,1,1,0
21730760000,21730760000,1036000,41.606704,-86.3556021,-0.6640916,-1.1528476,0.1376565,0.00058025087,2.2485685e-05,0.0,0.003481076,0.0016754954,-0.0014397429,-0.0010857715,-0.00040349647,-0.0023179057,0.002978221,-0.0089349,-0.082435235,-0.022430966,-1.0660254,0.06311534,229.4085,0.100184366,0.048901305,0.055045173,0.0158537,0.011402337,inf,inf,inf,inf,1,1,1,1,2,0,2,1,47,0,1,1,1,0
21731264000,21731264000,1036000,41.606704,-86.3556021,-0.66387576,-1.1537474,0.13868366,0.00058025087,2.2485685e-05,0.0,0.005416678,-0.0015429648,0.004941534,0.0052001383,-0.00040349647,-0.0023179057,0.002978221,-0.12891628,-0.062175374,-0.033812657,-1.0660678,0.06311534,229.4085,0.1,0.04885026,0.05499988,0.0014142136,0.001,inf,inf,inf,inf,1,1,1,1,2,0,2,1,47,0,1,1,1,0
21731760000,21731760000,1036000,41.606704,-86.3556021,-0.66451436,-1.1541452,0.13845147,0.00058025087,2.2485685e-05,0.0,0.00046154571,0.0004848541,-0.0002937765,-0.0005315738,-0.00040349647,-0.0023179057,0.002978221,-0.12760757,-0.025924029,0.2829953,-1.0663322,0.06311534,229.4085,0.1,0.048856214,0.054954536,0.0128491735,0.009192891,inf,inf,inf,inf,1,1,1,1,2,0,2,1,47,0,1,1,1,0
21732264000,21732264000,1036000,41.606704,-86.3556021,-0.6655258,-1.152081,0.13896391,0.00058025087,2.2485685e-05,0.0,0.0014724333,0.005072898,0.00492131,0.0047779595,-0.00040349647,-0.0023179057,0.002978221,-0.012346681,0.10528327,0.061576184,-1.0667758,0.06311534,229.4085,0.1,0.048828974,0.054927927,0.018935459,0.013704621,inf,inf,inf,inf,1,1,1,1,2,0,2,1,47,0,1,1,1,0
21732768000,21732768000,1036000,41.606704,-86.3556021,-0.6668241,-1.1516005,0.14071608,0.00058025087,2.2485685e-05,0.0,-0.0036352614,0.005887173,0.010026265,0.008154494,-0.00040349647,-0.0023179057,0.002978221,0.0719698,0.023824599,0.14175189,-1.066064,0.06311534,229.4085,0.1,0.048787773,0.054873787,0.009919065,0.0070643993,inf,inf,inf,inf,1,1,1,1,2,0,2,1,47,0,1,1,1,0
21733264000,21733264000,1036000,41.606704,-86.3556021,-0.66631204,-1.151753,0.14078622,0.00058025087,2.2485685e-05,0.0,-4.644078e-05,0.004708058,0.008970383,0.006420125,-0.00040349647,-0.0023179057,0.002978221,0.0711393,-0.036522225,-0.89905226,-1.0656312,0.06311534,229.4085,0.1,0.04901847,0.05495851,0.02777872,0.020451033,inf,inf,inf,inf,1,1,1,1,2,0,2,1,47,0,1,1,1,0
21733768000,21733768000,1036000,41.606704,-86.3556021,-0.6661831,-1.1491449,0.14514647,0.00058025087,2.2485685e-05,0.0,0.00034269693,0.009974731,0.016379572,0.014872302,-0.00040349647,-0.0023179057,0.002978221,-0.060596477,-0.017122235,-0.09386713,-1.0639535,0.06311534,229.4085,0.1,0.053549968,0.05730836,0.048817217,0.03695725,inf,inf,inf,inf,1,1,1,1,2,0,2,1,47,0,1,1,1,0
21734264000,21734264000,1036000,41.606704,-86.3556021,-0.6730075,-1.1421806,0.10872269,0.00058025087,2.2485685e-05,0.0,-0.031404007,0.018402634,-0.38880625,-0.38961896,-0.00040349647,-0.0023179057,0.002978221,-0.12925886,-0.022787457,-2.2142584,-1.0658551,0.06311534,229.4085,0.14013344,0.068164915,0.06590651,0.06806724,0.051474497,inf,inf,inf,inf,1,1,1,1,2,0,2,1,47,0,1,1,1,0
21734768000,21734768000,1036000,41.606704,-86.3556021,-0.6890484,-1.1356901,-0.34541956,0.00058025087,2.2485685e-05,0.0,-0.020629043,0.0031085033,-1.4050009,-1.4042729,-0.00040349647,-0.0023179057,0.002978221,0.14923523,0.0042214296,-2.2139063,-1.065432,0.06311534,229.4085,0.5942757,0.09496761,0.08356477,0.088754684,0.06507932,inf,inf,inf,inf,1,1,1,1,2,0,2,1,47,0,1,1,1,0
21735264000,21735264000,1036000,41.606704,-86.3556021,-0.6930216,-1.139052,-1.0581105,0.00058025087,2.2485685e-05,0.0,-0.0018966792,-0.012663565,-1.1928073,-1.1913371,-0.00040349647,-0.0023179057,0.002978221,0.034827992,0.05147091,1.2356236,-1.0651926,0.06311534,229.4085,1.3069665,0.12707654,0.107971124,0.10116047,0.076288275,inf,inf,inf,inf,1,1,1,1,2,0,2,1,47,0,1,1,1,0
21735760000,21735760000,1036000,41.606704,-86.3556021,-0.6897963,-1.1469369,-1.5250523,0.00058025087,2.2485685e-05,0.0,0.0023740965,-0.011314318,-0.71526796,-0.71782017,-0.00040349647,-0.0023179057,0.002978221,0.011441803,-0.04090279,0.78243846,-1.0101403,0.07184153,229.4085,1.7739084,0.16846497,0.140203,0.1100404,0.08828987,inf,inf,inf,inf,1,1,1,1,2,0,2,1,48,0,1,1,1,0
21736264000,21736264000,1036000,41.606704,-86.3556021,-0.68301713,-1.1558349,-1.8188497,0.00058025087,2.2485685e-05,0.0,2.6476613e-05,-0.0075349887,-0.42782122,-0.43855998,-0.00040349647,-0.0023179057,0.002978221,-0.024955548,-0.07485792,0.5191657,-1.0283679,0.07184153,229.4085,2.0677059,0.1975349,0.17200592,0.11428183,0.095494606,inf,inf,inf,inf,1,1,1,1,2,0,2,1,48,0,1,1,1,0
21736768000,21736768000,1036000,41.606704,-86.3556021,-0.67405856,-1.158157,-1.9990318,0.00058025087,2.2485685e-05,0.0,-0.0026661565,-0.0015430463,-0.26141497,-0.27646393,-0.00040349647,-0.0023179057,0.002978221,0.0042509874,0.038380396,0.2803066,-1.0395778,0.07184153,229.4085,2.2478878,0.22919318,0.20723881,0.13027523,0.1029389,inf,inf,inf,inf,1,1,1,1,2,0,2,1,48,1,1,1,1,0
21737264000,21737264000,1036000,41.606704,-86.3556021,-0.67341185,-1.1582799,-2.1121714,0.00058025087,2.2485685e-05,0.0,-0.014733939,-0.00022347712,-0.1603927,-0.17782907,-0.00040349647,-0.0023179057,0.002978221,-0.0638027,0.015591494,0.051394973,-1.0436038,0.07184153,229.4085,2.3610275,0.2567825,0.24012785,0.14413416,0.10798771,inf,inf,inf,inf,1,1,1,1,2,0,2,1,48,1,1,1,1,0
21737760000,21737760000,1036000,41.606704,-86.3556021,-0.6712724,-1.1591078,-2.1176684,0.00058025087,2.2485685e-05,0.0,-0.011097488,-0.003147011,0.09155718,0.07590888,-0.00040349647,-0.0023179057,0.002978221,-0.043698728,0.0814612,-0.28144386,-1.0467117,0.07184153,229.4085,2.3665245,0.28208697,0.27075696,0.15473843,0.111611955,inf,inf,inf,inf,1,1,1,1,2,0,2,1,48,1,1,1,1,0
21738264000,21738264000,1036000,41.606704,-86.3556021,-0.67149127,-1.1433439,-2.123863,0.00058025087,2.2485685e-05,0.0,-0.014733848,0.08013315,-0.13209508,-0.14654855,-0.00040349647,-0.0023179057,0.002978221,0.009058149,0.44637865,-0.59814847,-1.051376,0.07184153,229.4085,2.372719,0.3047544,0.29982764,0.16241682,0.11431176,inf,inf,inf,inf,1,1,1,1,2,0,2,1,48,1,1,1,0,0
21738768000,21738768000,1036000,41.606704,-86.3556021,-0.67181814,-1.0092199,-2.271643,0.00058025087,2.2485685e-05,0.0,-0.014089536,0.52697116,-0.43756154,-0.44647115,-0.00040349647,-0.0023179057,0.002978221,-0.075508006,1.2691392,-0.5354211,-1.0503461,0.07184153,229.4085,2.520499,0.32370505,0.3254566,0.1665668,0.115894325,inf,inf,inf,inf,1,1,1,1,2,0,2,1,48,1,1,1,0,0
21739264000,21739264000,1036000,41.606704,-86.3556021,-0.6649141,-0.56489533,-2.5552094,0.00058025087,2.2485685e-05,0.0,-0.11952448,1.3289608,-0.7366966,-0.7522805,-0.00040349647,-0.0023179057,0.002978221,-1.0482856,2.3139808,-2.2383525,-1.0463626,0.07184153,229.4085,2.8040655,0.32045662,0.33700973,0.15676878,0.11263396,inf,inf,inf,inf,1,1,1,1,2,0,2,1,48,1,1,1,0,0
21739768000,21739768000,1036000,41.606704,-86.3556021,-0.921458,0.36176032,-3.1548104,0.00058025087,2.2485685e-05,0.0,-1.041928,2.2997212,-1.5887027,-1.5984741,-0.00040349647,-0.0023179057,0.002978221,-1.3881797,1.4301771,-1.6020304,-1.0501525,0.07184153,229.4085,3.4036665,0.3536449,0.36454493,0.18000722,0.11662324,inf,inf,inf,inf,1,1,1,1,2,0,2,1,48,1,1,1,0,0
21740264000,21740264000,1036000,41.606704,-86.3556021,-1.4975026,1.6650478,-4.120559,0.00058025087,2.2485685e-05,0.0,-1.4873155,2.849708,-2.3475094,-2.341824,-0.00040349647,-0.0023179057,0.002978221,-0.5791184,0.9384878,-1.6153278,-1.0530065,0.07184153,229.4085,4.3694153,0.34167475,0.36877316,0.16364309,0.11245119,inf,inf,inf,inf,1,1,1,1,2,0,2,1,48,1,1,1,0,0
21740768000,21740768000,1036000,41.606704,-86.3556021,-2.2767472,3.2341435,-5.4679523,0.00058025087,2.2485685e-05,0.0,-1.731173,3.2329721,-3.0148973,-3.0054524,-0.00040349647,-0.0023179057,0.002978221,-0.41618535,0.6489589,-0.9668367,-1.0512718,0.07184153,229.4085,5.7168083,0.3740447,0.39085096,0.17550853,0.11647619,inf,inf,inf,inf,1,1,1,1,2,0,2,1,48,1,1,1,0,0
21741264000,21741264000,1036000,41.606704,-86.3556021,-3.1624835,4.95251,-7.0815606,0.00058025087,2.2485685e-05,0.0,-1.9066144,3.5414839,-3.5333161,-3.5171125,-0.00040349647,-0.0023179057,0.002978221,-0.31949604,0.49869126,-0.9031976,-1.0505878,0.07184153,229.4085,7.3304167,0.355971,0.38997403,0.15475087,0.11234199,inf,inf,inf,inf,1,1,1,1,2,0,2,1,48,1,1,1,0,0
21741760000,21741760000,1036000,41.606704,-86.3556021,-4.1413026,6.805935,-8.928768,0.00058025087,2.2485685e-05,0.0,-2.0627704,3.7998168,-3.9452982,-3.9278624,-0.00040349647,-0.0023179057,0.002978221,-0.29112434,0.48089048,-0.66914505,-1.0490105,0.07184153,229.4085,9.177625,0.36181283,0.3985421,0.1517234,0.112801656,inf,inf,inf,inf,1,1,1,1,2,0,2,1,48,1,1,1,0,0
21742264000,21742264000,1036000,41.606704,-86.3556021,-5.215966,8.796061,-11.008776,0.00058025087,2.2485685e-05,0.0,-2.1918793,4.0171814,-4.2841697,-4.278091,-0.00040349647,-0.0023179057,0.002978221,-0.26515734,0.38448617,-0.54196924,-1.0479584,0.07184153,229.4085,11.257632,0.36705762,0.40367728,0.14939615,0.11311125,inf,inf,inf,inf,1,1,1,1,2,0,2,1,48,1,1,1,0,0
21742768000,21742768000,1036000,41.606704,-86.3556021,-6.3601737,10.891074,-13.247458,0.00058025087,2.2485685e-05,0.0,-2.3175676,4.1990814,-4.556983,-4.56098,-0.00040349647,-0.0023179057,0.002978221,-0.23639457,0.29714677,-0.58685243,-1.047531,0.07184153,229.4085,13.496315,0.37128025,0.40734965,0.14791197,0.11352208,inf,inf,inf,inf,1,1,1,1,2,0,2,1,48,1,1,1,0,0
21743264000,21743264000,1036000,41.606704,-86.3556021,-7.535057,13.02861,-15.575135,0.00058025087,2.2485685e-05,0.0,-2.4087029,4.351581,-4.767648,-4.780124,-0.00040349647,-0.0023179057,0.002978221,-0.2800649,0.32477453,-0.47799388,-1.0471783,0.07184153,229.4085,15.823992,0.37516773,0.41229087,0.14789371,0.114495225,inf,inf,inf,inf,1,1,1,1,2,0,2,1,48,1,1,1,0,0
21743768000,21743768000,1036000,41.606704,-86.3556021,-8.769623,15.271152,-18.034521,0.00058025087,2.2485685e-05,0.0,-2.484978,4.4806995,-4.944321,-4.9580283,-0.00040349647,-0.0023179057,0.002978221,-0.14052387,0.1547265,-0.20592944,-1.047163,0.07184153,229.4085,18.283377,0.377616,0.414084,0.14745592,0.11497561,inf,inf,inf,inf,1,1,1,1,2,0,2,1,48,1,1,1,0,0
21744264000,21744264000,1036000,41.606704,-86.3556021,-10.025381,17.536741,-20.534647,0.00058025087,2.2485685e-05,0.0,-2.543589,4.5927696,-5.079405,-5.099154,-0.00040349647,-0.0023179057,0.002978221,-0.07781403,0.31275997,-0.2415786,-1.0469736,0.07184153,229.4085,20.783503,0.3596663,0.4084537,0.13853367,0.1119282,inf,inf,inf,inf,1,1,1,1,2,0,2,1,48,1,1,1,0,0
21744768000,21744768000,1036000,41.606704,-86.3556021,-11.330582,19.89341,-23.14062,0.00058025087,2.2485685e-05,0.0,-2.6020908,4.694903,-5.1931686,-5.2165055,-0.00040349647,-0.0023179057,0.002978221,-0.11471296,0.1573085,-0.14705215,-1.0472902,0.07184153,229.4085,23.389475,0.38424718,0.41885477,0.15090108,0.116862625,inf,inf,inf,inf,1,1,1,1,2,0,2,1,48,1,1,1,0,0
21745264000,21745264000,1036000,41.606704,-86.3556021,-12.646256,22.25352,-25.748787,0.00058025087,2.2485685e-05,0.0,-2.6525242,4.778535,-5.278956,-5.3009377,-0.00040349647,-0.0023179057,0.002978221,-0.0347282,0.14475721,-0.20891991,-1.047342,0.07184153,229.4085,25.997643,0.36442992,0.4123573,0.14127095,0.11343507,inf,inf,inf,inf,1,1,1,1,2,0,2,1,48,1,1,1,0,0
21745760000,21745760000,1036000,41.606704,-86.3556021,-13.986878,24.64646,-28.393826,0.00058025087,2.2485685e-05,0.0,-2.7003775,4.8462167,-5.353253,-5.3713846,-0.00040349647,-0.0023179057,0.002978221,-0.18129496,0.17019834,-0.28128833,-1.0473976,0.07184153,229.4085,28.642681,0.36706164,0.4150566,0.14328732,0.1143339,inf,inf,inf,inf,1,1,1,1,2,0,2,1,48,1,1,1,0,0
21746264000,21746264000,1036000,41.606704,-86.3556021,-15.369904,27.113941,-31.105778,0.00058025087,2.2485685e-05,0.0,-2.7420633,4.9047923,-5.406103,-5.4166117,-0.00040349647,-0.0023179057,0.002978221,-0.24987988,0.10176427,-0.15537725,-1.0470876,0.07184153,229.4085,31.354633,0.3688306,0.41500348,0.14399463,0.11461874,inf,inf,inf,inf,1,1,1,1,2,0,2,1,48,1,1,1,0,0
21746768000,21746768000,1036000,41.606704,-86.3556021,-16.773396,29.608301,-33.851795,0.00058025087,2.2485685e-05,0.0,-2.77602,4.95357,-5.457092,-5.469024,-0.00040349647,-0.0023179057,0.002978221,-0.16144723,0.17028625,-0.211224,-1.0465772,0.07184153,229.4085,34.10065,0.3715291,0.4178069,0.14569843,0.11536939,inf,inf,inf,inf,1,1,1,1,2,0,2,1,48,1,1,1,0,0
21747264000,21747264000,1036000,41.606704,-86.3556021,-18.168205,32.08932,-36.582794,0.00058025087,2.2485685e-05,0.0,-2.798651,5.004701,-5.5085607,-5.524454,-0.00040349647,-0.0023179057,0.002978221,-0.08872245,0.058650978,-0.0671419,-1.0464787,0.07184153,229.4085,36.83165,0.37448096,0.4170692,0.14779796,0.11569247,inf,inf,inf,inf,1,1,1,1,2,0,2,1,48,1,1,1,0,0
21747768000,21747768000,1036000,41.606704,-86.3556021,-19.598848,34.636383,-39.375668,0.00058025087,2.2485685e-05,0.0,-2.8242168,5.0453267,-5.545776,-5.5583982,-0.00040349647,-0.0023179057,0.002978221,0.024446731,0.06599957,-0.01658133,-1.0459837,0.07184153,229.4085,39.624523,0.37655643,0.416703,0.14854191,0.11579322,inf,inf,inf,inf,1,1,1,1,2,0,2,1,48,1,1,1,0,0
21748264000,21748264000,1036000,41.606704,-86.3556021,-21.02449,37.15618,-42.139065,0.00058025087,2.2485685e-05,0.0,-2.8428133,5.0759635,-5.58341,-5.5934706,-0.00040349647,-0.0023179057,0.002978221,-0.08341932,0.009699099,-0.031093195,-1.0463567,0.07184153,229.4085,42.38792,0.35895744,0.41310722,0.13990836,0.112551495,inf,inf,inf,inf,1,1,1,1,2,0,2,1,48,1,1,1,0,0
21748768000,21748768000,1036000,41.606704,-86.3556021,-22.480247,39.72694,-44.951237,0.00058025087,2.2485685e-05,0.0,-2.862771,5.09937,-5.607295,-5.6065645,-0.00040349647,-0.0023179057,0.002978221,-0.013943826,0.034243364,-0.09871373,-1.0461515,0.07184153,229.4085,45.200092,0.38172707,0.41847244,0.15106168,0.1162997,inf,inf,inf,inf,1,1,1,1,2,0,2,1,48,1,1,1,0,0
21749264000,21749264000,1036000,41.606704,-86.3556021,-23.925846,42.272873,-47.724342,0.00058025087,2.2485685e-05,0.0,-2.882553,5.1223016,-5.628907,-5.618797,-0.00040349647,-0.0023179057,0.002978221,-0.022132993,0.09190785,-0.15531579,-1.0456288,0.07184153,229.4085,47.973198,0.36259228,0.41451487,0.14127877,0.112745546,inf,inf,inf,inf,1,1,1,1,2,0,2,1,48,1,1,1,0,0
21749768000,21749768000,1036000,41.606704,-86.3556021,-25.398096,44.879673,-50.549393,0.00058025087,2.2485685e-05,0.0,-2.8933394,5.14657,-5.6394696,-5.6218176,-0.00040349647,-0.0023179057,0.002978221,-0.010377444,0.052498315,-0.17376342,-1.0455421,0.07184153,229.4085,50.79825,0.36609727,0.4141676,0.14338797,0.112959094,inf,inf,inf,inf,1,1,1,1,2,0,2,1,48,1,1,1,0,0
21750264000,21750264000,1036000,41.606704,-86.3556021,-26.851456,47.449818,-53.34419,0.00058025087,2.2485685e-05,0.0,-2.9088802,5.1665177,-5.653662,-5.6375866,-0.00040349647,-0.0023179057,0.002978221,0.0401262,0.08272636,-0.0077430783,-1.0456651,0.07184153,229.4085,53.593044,0.3674507,0.41598243,0.14353453,0.113011844,inf,inf,inf,inf,1,1,1,1,2,0,2,1,48,1,1,1,0,0
21750768000,21750768000,1036000,41.606704,-86.3556021,-28.339188,50.07633,-56.176914,0.00058025087,2.2485685e-05,0.0,-2.9200268,5.190321,-5.657484,-5.6347203,-0.00040349647,-0.0023179057,0.002978221,-0.10584548,-0.0081745,0.024238536,-1.045619,0.07184153,229.4085,56.42577,0.37047744,0.41550827,0.14499311,0.11303436,inf,inf,inf,inf,1,1,1,1,2,0,2,1,48,1,1,1,0,0
21751264000,21751264000,1036000,41.606704,-86.3556021,-29.800539,52.666866,-58.979206,0.00058025087,2.2485685e-05,0.0,-2.9305124,5.2058735,-5.659014,-5.6428294,-0.00040349647,-0.0023179057,0.002978221,-0.08305432,-0.012498613,-0.021598363,-1.0464717,0.07184153,229.4085,59.22806,0.372388,0.41728297,0.14557427,0.11312399,inf,inf,inf,inf,1,1,1,1,2,0,2,1,48,1,1,1,0,0
21751760000,21751760000,1036000,41.606704,-86.3556021,-31.264593,55.255974,-61.779526,0.00058025087,2.2485685e-05,0.0,-2.9391313,5.2162576,-5.660163,-5.645963,-0.00040349647,-0.0023179057,0.002978221,-0.03646315,-0.016275493,-0.02751878,-1.0464344,0.07184153,229.4085,62.02838,0.3740139,0.4189159,0.14602804,0.1131263,inf,inf,inf,inf,1,1,1,1,2,0,2,1,48,1,1,1,0,0
21752264000,21752264000,1036000,41.606704,-86.3556021,-32.754837,57.892525,-64.63185,0.00058025087,2.2485685e-05,0.0,-2.9517715,5.224138,-5.661265,-5.6532063,-0.00040349647,-0.0023179057,0.002978221,-0.035945565,0.1116591,-0.046365023,-1.0461658,0.07184153,229.4085,64.88071,0.3575482,0.41274545,0.1380143,0.10969667,inf,inf,inf,inf,1,1,1,1,2,0,2,1,48,1,1,1,0,0
21752768000,21752768000,1036000,41.606704,-86.3556021,-34.249187,60.53515,-67.48436,0.00058025087,2.2485685e-05,0.0,-2.9629939,5.231946,-5.6588387,-5.6531663,-0.00040349647,-0.0023179057,0.002978221,-0.13082567,-0.0368861,-0.08829875,-1.0459974,0.07184153,229.4085,67.733215,0.3803712,0.4203409,0.1489269,0.113325834,inf,inf,inf,inf,1,1,1,1,2,0,2,1,48,1,1,1,0,0
21753264000,21753264000,1036000,41.606704,-86.3556021,-35.717884,63.14519,-70.29455,0.00058025087,2.2485685e-05,0.0,-2.9777586,5.2418966,-5.6608586,-5.6616035,-0.00040349647,-0.0023179057,0.002978221,0.12664482,-0.07778489,0.28206307,-1.0462307,0.07184153,229.4085,70.5434,0.3616801,0.4133609,0.13960361,0.10963872,inf,inf,inf,inf,1,1,1,1,2,0,2,1,48,1,1,1,0,0
21753768000,21753768000,1036000,41.606704,-86.3556021,-37.211163,65.79455,-73.15842,0.00058025087,2.2485685e-05,0.0,-2.9806633,5.246912,-5.653247,-5.6634026,-0.00040349647,-0.0023179057,0.002978221,-0.03926484,0.022937242,-0.024897108,-1.046154,0.07184153,229.4085,73.40727,0.38615844,0.42107138,0.15148878,0.11337554,inf,inf,inf,inf,1,1,1,1,2,0,2,1,48,1,1,1,0,0
21754264000,21754264000,1036000,41.606704,-86.3556021,-38.68266,68.40182,-75.969246,0.00058025087,2.2485685e-05,0.0,-2.9838407,5.257024,-5.644244,-5.657024,-0.00040349647,-0.0023179057,0.002978221,0.006547149,0.044088766,0.01996656,-1.046683,0.07184153,229.4085,76.2181,0.36568856,0.41685906,0.14101772,0.10991841,inf,inf,inf,inf,1,1,1,1,2,0,2,1,48,1,1,1,0,0
21754768000,21754768000,1036000,41.606704,-86.3556021,-40.173042,71.05115,-78.81835,0.00058025087,2.2485685e-05,0.0,-2.9837525,5.2630186,-5.631076,-5.6436806,-0.00040349647,-0.0023179057,0.002978221,-0.049595997,0.025959186,0.079467826,-1.0467964,0.07184153,229.4085,79.06721,0.36884394,0.41598424,0.14269643,0.109941944,inf,inf,inf,inf,1,1,1,1,2,0,2,1,48,1,1,1,0,0
21755264000,21755264000,1036000,41.606704,-86.3556021,-41.64743,73.6585,-81.62578,0.00058025087,2.2485685e-05,0.0,-2.9934468,5.266439,-5.624875,-5.645421,-0.00040349647,-0.0023179057,0.002978221,0.032112144,0.00096162653,0.0032185875,-1.0470731,0.07184153,229.4085,81.87463,0.37094793,0.4173938,0.14359358,0.11008666,inf,inf,inf,inf,1,1,1,1,2,0,2,1,48,1,1,1,0,0
21755760000,21755760000,1036000,41.606704,-86.3556021,-43.126774,76.26814,-84.44008,0.00058025087,2.2485685e-05,0.0,-3.01657,5.265558,-5.6283207,-5.6585298,-0.00040349647,-0.0023179057,0.002978221,-0.16910526,-0.048347194,-0.14188145,-1.046929,0.07184153,229.4085,84.688934,0.37280765,0.41584083,0.1443485,0.1098717,inf,inf,inf,inf,1,1,1,1,2,0,2,1,48,1,1,1,0,0
21756264000,21756264000,1036000,41.606704,-86.3556021,-44.63028,78.92133,-87.29969,0.00058025087,2.2485685e-05,0.0,-3.015579,5.273614,-5.624999,-5.6610093,-0.00040349647,-0.0023179057,0.002978221,0.06720462,-0.049216054,0.27380225,-1.0473465,0.07184153,229.4085,87.548546,0.37636334,0.417934,0.14625844,0.11031631,inf,inf,inf,inf,1,1,1,1,2,0,2,1,48,1,1,1,0,0
21756768000,21756768000,1036000,41.606704,-86.3556021,-46.135536,81.577065,-90.15177,0.00058025087,2.2485685e-05,0.0,-3.015689,5.274397,-5.614566,-5.6518188,-0.00040349647,-0.0023179057,0.002978221,-0.12586533,0.0063753976,0.08090765,-1.0471305,0.07184153,229.4085,90.40063,0.37813926,0.4169723,0.14652504,0.11016767,inf,inf,inf,inf,1,1,1,1,2,0,2,1,48,1,1,1,0,0
21757264000,21757264000,1036000,41.606704,-86.3556021,-47.611614,84.195305,-92.96448,0.00058025087,2.2485685e-05,0.0,-3.0084426,5.27652,-5.611149,-5.6562805,-0.00040349647,-0.0023179057,0.002978221,-0.056373525,0.032268707,0.07404008,-1.0475153,0.07184153,229.4085,93.21333,0.36003584,0.41328362,0.13784792,0.10724563,inf,inf,inf,inf,1,1,1,1,2,0,2,1,48,1,1,1,0,0
21757768000,21757768000,1036000,41.606704,-86.3556021,-49.11446,86.853325,-95.83082,0.00058025087,2.2485685e-05,0.0,-3.010957,5.2696247,-5.6118283,-5.6667547,-0.00040349647,-0.0023179057,0.002978221,-0.019269256,-0.036784653,0.016472237,-1.0475857,0.07184153,229.4085,96.07967,0.38425684,0.41781923,0.14966659,0.11058956,inf,inf,inf,inf,1,1,1,1,2,0,2,1,48,1,1,1,0,0
21758264000,21758264000,1036000,41.606704,-86.3556021,-50.592575,89.47253,-98.6428,0.00058025087,2.2485685e-05,0.0,-3.0043564,5.2680435,-5.6055655,-5.6623964,-0.00040349647,-0.0023179057,0.002978221,0.022868747,0.07456332,-0.014088178,-1.0473719,0.07184153,229.4085,98.891655,0.36444908,0.41402033,0.1398212,0.10756747,inf,inf,inf,inf,1,1,1,1,2,0,2,1,48,1,1,1,0,0
21758768000,21758768000,1036000,41.606704,-86.3556021,-52.10026,92.139755,-101.50629,0.00058025087,2.2485685e-05,0.0,-3.0013232,5.2674,-5.601283,-5.666076,-0.00040349647,-0.0023179057,0.002978221,0.08556147,-0.029441465,0.016540224,-1.0476142,0.07184153,229.4085,101.75514,0.36778802,0.41333935,0.14168976,0.10778391,inf,inf,inf,inf,1,1,1,1,2,0,2,1,48,1,1,1,0,0
21759264000,21759264000,1036000,41.606704,-86.3556021,-53.585217,94.76756,-104.310036,0.00058025087,2.2485685e-05,0.0,-2.9959478,5.2745757,-5.586877,-5.646578,-0.00040349647,-0.0023179057,0.002978221,-0.069952704,-0.02926879,-0.074674435,-1.0479499,0.07184153,229.4085,104.55889,0.36882162,0.41485184,0.14166331,0.10792059,inf,inf,inf,inf,1,1,1,1,2,0,2,1,48,1,1,1,0,0
21759768000,21759768000,1036000,41.606704,-86.3556021,-55.09085,97.4365,-107.16786,0.00058025087,2.2485685e-05,0.0,-2.9960854,5.2857323,-5.585409,-5.6533566,-0.00040349647,-0.0023179057,0.002978221,0.005662232,0.054074105,0.03009935,-1.0475768,0.07184153,229.4085,107.41672,0.37156564,0.41421583,0.1430136,0.10807338,inf,inf,inf,inf,1,1,1,1,2,0,2,1,48,1,1,1,0,0
21760264000,21760264000,1036000,41.606704,-86.3556021,-56.580074,100.0701,-109.98799,0.00058025087,2.2485685e-05,0.0,-2.9947193,5.2987056,-5.5874243,-5.66625,-0.00040349647,-0.0023179057,0.002978221,0.047931146,0.08643407,-0.05811459,-1.0477713,0.07184153,229.4085,110.23685,0.37455237,0.41604704,0.14478956,0.10855791,inf,inf,inf,inf,1,1,1,1,2,0,2,1,48,1,1,1,0,0
21760768000,21760768000,1036000,41.606704,-86.3556021,-58.094532,102.747086,-112.85014,0.00058025087,2.2485685e-05,0.0,-2.9876478,5.305582,-5.5931363,-5.6768217,-0.00040349647,-0.0023179057,0.002978221,0.06431486,0.05773278,0.047786098,-1.0478317,0.07184153,229.4085,113.099,0.3766263,0.41532916,0.14537849,0.10859537,inf,inf,inf,inf,1,1,1,1,2,0,2,1,48,1,1,1,0,0
21761264000,21761264000,1036000,41.606704,-86.3556021,-59.58263,105.37619,-115.68001,0.00058025087,2.2485685e-05,0.0,-2.9866066,5.308392,-5.6019664,-5.69317,-0.00040349647,-0.0023179057,0.002978221,0.073147014,0.0024311517,0.005385775,-1.0477049,0.07184153,229.4085,115.92886,0.35901135,0.41196665,0.13711944,0.10594612,inf,inf,inf,inf,1,1,1,1,2,0,2,1,48,1,1,1,0,0
21761768000,21761768000,1036000,41.606704,-86.3556021,-61.093033,108.049416,-118.54445,0.00058025087,2.2485685e-05,0.0,-2.986929,5.312861,-5.600521,-5.6850834,-0.00040349647,-0.0023179057,0.002978221,-0.0738546,0.019543046,-0.031064324,-1.0479405,0.07184153,229.4085,118.793304,0.38173464,0.41640043,0.1477096,0.10911342,inf,inf,inf,inf,1,1,1,1,2,0,2,1,48,1,1,1,0,0
21762264000,21762264000,1036000,41.606704,-86.3556021,-62.584805,110.68018,-121.36857,0.00058025087,2.2485685e-05,0.0,-2.9848435,5.3144712,-5.6056523,-5.691957,-0.00040349647,-0.0023179057,0.002978221,0.112918235,0.11512713,-0.07675408,-1.0481274,0.07184153,229.4085,121.617424,0.36267737,0.412814,0.13853069,0.106326945,inf,inf,inf,inf,1,1,1,1,2,0,2,1,48,1,1,1,0,0
21762760000,21762760000,1036000,41.606704,-86.3556021,-64.07325,113.30696,-124.20745,0.00058025087,2.2485685e-05,0.0,-2.9796,5.3169384,-5.6127906,-5.708147,-0.00040349647,-0.0023179057,0.002978221,0.044512432,0.021193514,0.029694224,-1.048036,0.07184153,229.4085,124.45631,0.36551654,0.41163078,0.14032859,0.10651067,inf,inf,inf,inf,1,1,1,1,2,0,2,1,48,1,1,1,0,0
21763264000,21763264000,1036000,41.606704,-86.3556021,-65.57667,115.983696,-127.07239,0.00058025087,2.2485685e-05,0.0,-2.973816,5.3194265,-5.6164756,-5.699626,-0.00040349647,-0.0023179057,0.002978221,-0.03298334,-0.059223086,0.120117255,-1.0479511,0.07184153,229.4085,127.32124,0.36749956,0.41376856,0.14091162,0.1069177,inf,inf,inf,inf,1,1,1,1,2,0,2,1,48,1,1,1,0,0
21763768000,21763768000,1036000,41.606704,-86.3556021,-67.08604,118.6688,-129.94711,0.00058025087,2.2485685e-05,0.0,-2.9707782,5.3247232,-5.624893,-5.7072315,-0.00040349647,-0.0023179057,0.002978221,0.022242488,0.013297522,0.028280476,-1.0481849,0.07184153,229.4085,130.19597,0.3704592,0.41305435,0.14244586,0.10714194,inf,inf,inf,inf,1,1,1,1,2,0,2,1,48,1,1,1,0,0
21764264000,21764264000,1036000,41.606704,-86.3556021,-68.56952,121.31018,-132.77759,0.00058025087,2.2485685e-05,0.0,-2.9751413,5.3322754,-5.635412,-5.7147884,-0.00040349647,-0.0023179057,0.002978221,-0.0045037414,-0.0009582912,-0.028835671,-1.0484016,0.07184153,229.4085,133.02644,0.3723103,0.41461396,0.14318745,0.107485294,inf,inf,inf,inf,1,1,1,1,2,0,2,1,48,1,1,1,0,0
21764768000,21764768000,1036000,41.606704,-86.3556021,-70.07896,123.9974,-135.656,0.00058025087,2.2485685e-05,0.0,-2.971197,5.3316813,-5.6402397,-5.7164536,-0.00040349647,-0.0023179057,0.002978221,0.0065775295,0.0053879702,0.056319803,-1.0485305,0.07184153,229.4085,135.90486,0.3745977,0.41390076,0.1440774,0.10762527,inf,inf,inf,inf,1,1,1,1,2,0,2,1,48,1,1,1,0,0
21765264000,21765264000,1036000,41.606704,-86.3556021,-71.56523,126.64274,-138.48268,0.00058025087,2.2485685e-05,0.0,-2.9784873,5.327485,-5.6384864,-5.708153,-0.00040349647,-0.0023179057,0.002978221,0.001860487,-0.039228585,-0.104812965,-1.0483087,0.07184153,229.4085,138.73154,0.35747707,0.4106586,0.1361376,0.10512781,inf,inf,inf,inf,1,1,1,1,2,0,2,1,48,1,1,1,0,0
21765768000,21765768000,1036000,41.606704,-86.3556021,-73.07044,129.32697,-141.35625,0.00058025087,2.2485685e-05,0.0,-2.9807322,5.318223,-5.6466618,-5.711701,-0.00040349647,-0.0023179057,0.002978221,0.02569528,-0.04943133,0.18232402,-1.0482241,0.07184153,229.4085,141.6051,0.38011268,0.41492465,0.1468373,0.10831302,inf,inf,inf,inf,1,1,1,1,2,0,2,1,48,1,1,1,0,0
21766264000,21766264000,1036000,41.606704,-86.3556021,-74.561485,131.96896,-144.18864,0.00058025087,2.2485685e-05,0.0,-2.983407,5.3145466,-5.6463485,-5.7103167,-0.00040349647,-0.0023179057,0.002978221,-0.082784064,-0.038666,0.0011026226,-1.048654,0.07184153,229.4085,144.4375,0.3615348,0.41142422,0.13794014,0.10566494,inf,inf,inf,inf,1,1,1,1,2,0,2,1,48,1,1,1,0,0
21766760000,21766760000,1036000,41.606704,-86.3556021,-76.054535,134.6121,-147.01816,0.00058025087,2.2485685e-05,0.0,-2.9918723,5.317248,-5.6475277,-5.7086535,-0.00040349647,-0.0023179057,0.002978221,0.010161345,-0.043202586,-0.0027083491,-1.0484055,0.07184153,229.4085,147.26701,0.38503408,0.41821784,0.14924183,0.10918805,inf,inf,inf,inf,1,1,1,1,2,0,2,1,48,1,1,1,0,0
21767264000,21767264000,1036000,41.606704,-86.3556021,-77.563156,137.2941,-149.89438,0.00058025087,2.2485685e-05,0.0,-2.987517,5.3134103,-5.653544,-5.7116957,-0.00040349647,-0.0023179057,0.002978221,-0.01857719,0.040253468,-0.02290594,-1.0485717,0.07184153,229.4085,150.14323,0.36548692,0.4122377,0.13955846,0.10620709,inf,inf,inf,inf,1,1,1,1,2,0,2,1,48,1,1,1,0,0
21767768000,21767768000,1036000,41.606704,-86.3556021,-79.06929,139.9777,-152.77504,0.00058025087,2.2485685e-05,0.0,-2.9809864,5.3156776,-5.6530304,-5.7137094,-0.00040349647,-0.0023179057,0.002978221,-0.039724294,0.041714408,0.036398817,-1.0483984,0.07184153,229.4085,153.0239,0.36860678,0.41439638,0.14132506,0.10682755,inf,inf,inf,inf,1,1,1,1,2,0,2,1,48,1,1,1,0,0
21768264000,21768264000,1036000,41.606704,-86.3556021,-80.55416,142.62193,-155.60521,0.00058025087,2.2485685e-05,0.0,-2.9806645,5.314378,-5.652888,-5.710168,-0.00040349647,-0.0023179057,0.002978221,0.047465157,0.044516847,-0.1983997,-1.0483893,0.07184153,229.4085,155.85406,0.3695126,0.41300395,0.14130399,0.10674681,inf,inf,inf,inf,1,1,1,1,2,0,2,1,48,1,1,1,0,0
21768768000,21768768000,1036000,41.606704,-86.3556021,-82.06439,145.31015,-158.486,0.00058025087,2.2485685e-05,0.0,-2.9799426,5.308358,-5.653052,-5.712224,-0.00040349647,-0.0023179057,0.002978221,-0.1368436,0.11081687,-0.034013823,-1.0483462,0.07184153,229.4085,158.73485,0.3721456,0.4123115,0.14265797,0.10698133,inf,inf,inf,inf,1,1,1,1,2,0,2,1,48,1,1,1,0,0
21769264000,21769264000,1036000,41.606704,-86.3556021,-83.55529,147.96436,-161.31638,0.00058025087,2.2485685e-05,0.0,-2.9827006,5.315245,-5.6589127,-5.7134066,-0.00040349647,-0.0023179057,0.002978221,-0.0068989177,-0.039934162,0.00596692,-1.048258,0.07184153,229.4085,161.56523,0.3749761,0.41405213,0.14438623,0.10753194,inf,inf,inf,inf,1,1,1,1,2,0,2,1,48,1,1,1,0,0
21769768000,21769768000,1036000,41.606704,-86.3556021,-85.06445,150.65681,-164.18996,0.00058025087,2.2485685e-05,0.0,-2.9770572,5.308841,-5.661497,-5.7108245,-0.00040349647,-0.0023179057,0.002978221,-0.06595676,-0.08060004,0.032834645,-1.0483855,0.07184153,229.4085,164.43881,0.3769232,0.41334492,0.14496948,0.10765961,inf,inf,inf,inf,1,1,1,1,2,0,2,1,48,1,1,1,0,0
21770264000,21770264000,1036000,41.606704,-86.3556021,-86.55614,153.31332,-167.01915,0.00058025087,2.2485685e-05,0.0,-2.9758983,5.308757,-5.671035,-5.71591,-0.00040349647,-0.0023179057,0.002978221,0.010781807,-0.035954718,-0.020993935,-1.0482106,0.07184153,229.4085,167.268,0.35922512,0.41021797,0.13674496,0.10518306,inf,inf,inf,inf,1,1,1,1,2,0,2,1,48,1,1,1,0,0
21770768000,21770768000,1036000,41.606704,-86.3556021,-88.067894,156.00473,-169.89798,0.00058025087,2.2485685e-05,0.0,-2.979591,5.297386,-5.681941,-5.7233553,-0.00040349647,-0.0023179057,0.002978221,-0.027706312,-0.025128597,0.023344466,-1.0481523,0.07184153,229.4085,170.14684,0.38183957,0.4146557,0.14733672,0.108388916,inf,inf,inf,inf,1,1,1,1,2,0,2,1,48,1,1,1,0,0
21771264000,21771264000,1036000,41.606704,-86.3556021,-89.55615,158.65927,-172.7346,0.00058025087,2.2485685e-05,0.0,-2.9717872,5.3006306,-5.6892877,-5.7272625,-0.00040349647,-0.0023179057,0.002978221,0.029224992,-0.047851548,-0.05484844,-1.0481993,0.07184153,229.4085,172.98346,0.36276454,0.4113596,0.1382334,0.105759844,inf,inf,inf,inf,1,1,1,1,2,0,2,1,48,1,1,1,0,0
21771768000,21771768000,1036000,41.606704,-86.3556021,-91.06752,161.35786,-175.61644,0.00058025087,2.2485685e-05,0.0,-2.969401,5.3048553,-5.6937413,-5.726647,-0.00040349647,-0.0023179057,0.002978221,0.049776934,0.04604562,-0.0479818,-1.0482118,0.07184153,229.4085,175.8653,0.3661707,0.41095343,0.14031616,0.10618076,inf,inf,inf,inf,1,1,1,1,2,0,2,1,48,1,1,1,0,0
21772264000,21772264000,1036000,41.606704,-86.3556021,-92.5535,164.01027,-178.45264,0.00058025087,2.2485685e-05,0.0,-2.9696646,5.3019705,-5.7025266,-5.7298417,-0.00040349647,-0.0023179057,0.002978221,-0.028107576,-0.030394752,0.039319444,-1.0483667,0.07184153,229.4085,178.70149,0.36744753,0.40993074,0.14060257,0.10622528,inf,inf,inf,inf,1,1,1,1,2,0,2,1,48,1,1,1,0,0
21772768000,21772768000,1036000,41.606704,-86.3556021,-94.06211,166.70746,-181.33598,0.00058025087,2.2485685e-05,0.0,-2.9693499,5.2968087,-5.708079,-5.730524,-0.00040349647,-0.0023179057,0.002978221,0.052681714,-0.14286222,0.057179414,-1.0486078,0.07184153,229.4085,181.58484,0.37038192,0.4123891,0.14216204,0.10687296,inf,inf,inf,inf,1,1,1,1,2,0,2,1,48,1,1,1,0,0
21773264000,21773264000,1036000,41.606704,-86.3556021,-95.544464,169.35901,-184.1778,0.00058025087,2.2485685e-05,0.0,-2.9719298,5.298338,-5.713619,-5.7348723,-0.00040349647,-0.0023179057,0.002978221,-0.035463206,-0.035941046,-0.09827415,-1.0487102,0.07184153,229.4085,184.42665,0.3722862,0.41142732,0.14294364,0.10699932,inf,inf,inf,inf,1,1,1,1,2,0,2,1,48,1,1,1,0,0
21773760000,21773760000,1036000,41.606704,-86.3556021,-97.017334,172.0083,-187.01608,0.00058025087,2.2485685e-05,0.0,-2.9676416,5.295666,-5.7170506,-5.733319,-0.00040349647,-0.0023179057,0.002978221,0.015855446,0.048264883,-0.051168784,-1.0490149,0.07184153,229.4085,187.26494,0.37384346,0.41324478,0.14353305,0.10737644,inf,inf,inf,inf,1,1,1,1,2,0,2,1,48,1,1,1,0,0
21774264000,21774264000,1036000,41.606704,-86.3556021,-98.51313,174.70201,-189.90222,0.00058025087,2.2485685e-05,0.0,-2.9655194,5.28538,-5.7315044,-5.7436824,-0.00040349647,-0.0023179057,0.002978221,0.052702606,0.03554355,-0.09385875,-1.0486989,0.07184153,229.4085,190.15108,0.35750222,0.41068453,0.1360411,0.10506421,inf,inf,inf,inf,1,1,1,1,2,0,2,1,48,1,1,1,0,0
21774768000,21774768000,1036000,41.606704,-86.3556021,-100.01436,177.38448,-192.79802,0.00058025087,2.2485685e-05,0.0,-2.9718263,5.278255,-5.7384567,-5.749762,-0.00040349647,-0.0023179057,0.002978221,-0.10839372,-0.0952468,-0.1181821,-1.0482022,0.07184153,229.4085,193.04688,0.38010627,0.41505444,0.1467082,0.10827232,inf,inf,inf,inf,1,1,1,1,2,0,2,1,48,1,1,1,0,0
21775264000,21775264000,1036000,41.606704,-86.3556021,-101.50221,180.03535,-195.63152,0.00058025087,2.2485685e-05,0.0,-2.9725578,5.281398,-5.746036,-5.741843,-0.00040349647,-0.0023179057,0.002978221,0.19296466,-0.15828222,0.23278122,-1.0486075,0.07184153,229.4085,195.88037,0.36153424,0.4116187,0.13783927,0.10564109,inf,inf,inf,inf,1,1,1,1,2,0,2,1,48,1,1,1,0,0
21775760000,21775760000,1036000,41.606704,-86.3556021,-102.98543,182.68239,-198.47246,0.00058025087,2.2485685e-05,0.0,-2.9760873,5.275858,-5.748455,-5.740252,-0.00040349647,-0.0023179057,0.002978221,0.014963444,-0.06672008,0.054405008,-1.0491652,0.07184153,229.4085,198.72131,0.3850029,0.41838232,0.14914118,0.109148346,inf,inf,inf,inf,1,1,1,1,2,0,2,1,48,1,1,1,0,0
21776264000,21776264000,1036000,41.606704,-86.3556021,-104.486305,185.36868,-201.34453,0.00058025087,2.2485685e-05,0.0,-2.9745092,5.271519,-5.7504644,-5.726119,-0.00040349647,-0.0023179057,0.002978221,0.02663041,-0.023165315,-0.033951424,-1.0488629,0.07184153,229.4085,201.59338,0.36546898,0.41237012,0.13948205,0.10616567,inf,inf,inf,inf,1,1,1,1,2,0,2,1,48,1,1,1,0,0
21776760000,21776760000,1036000,41.606704,-86.3556021,-105.968445,188.01706,-204.1714,0.00058025087,2.2485685e-05,0.0,-2.9778647,5.2731094,-5.7543187,-5.720825,-0.00040349647,-0.0023179057,0.002978221,0.03868979,-0.0461572,-0.053329453,-1.0482674,0.07184153,229.4085,204.42026,0.3678938,0.41123396,0.14092802,0.10635867,inf,inf,inf,inf,1,1,1,1,2,0,2,1,48,1,1,1,0,0
21777264000,21777264000,1036000,41.606704,-86.3556021,-107.47038,190.69453,-207.0593,0.00058025087,2.2485685e-05,0.0,-2.9782217,5.265459,-5.76182,-5.732521,-0.00040349647,-0.0023179057,0.002978221,-0.03270682,0.02028957,-0.090962335,-1.0486416,0.07184153,229.4085,207.30815,0.3706625,0.4134513,0.14223729,0.106941104,inf,inf,inf,inf,1,1,1,1,2,0,2,1,48,1,1,1,0,0
21777768000,21777768000,1036000,41.606704,-86.3556021,-108.97799,193.37625,-209.93837,0.00058025087,2.2485685e-05,0.0,-2.9773142,5.2625594,-5.7597713,-5.7234917,-0.00040349647,-0.0023179057,0.002978221,-0.040676232,-0.0085724825,-0.13662414,-1.0483197,0.07184153,229.4085,210.18723,0.37321356,0.41559553,0.1433694,0.107470356,inf,inf,inf,inf,1,1,1,1,2,0,2,1,48,1,1,1,0,0
21778264000,21778264000,1036000,41.606704,-86.3556021,-110.45949,196.01839,-212.76137,0.00058025087,2.2485685e-05,0.0,-2.975348,5.26112,-5.7552214,-5.7096744,-0.00040349647,-0.0023179057,0.002978221,-0.020100968,-0.12825722,0.0856872,-1.0483956,0.07184153,229.4085,213.01022,0.37602785,0.41430354,0.14497042,0.107655175,inf,inf,inf,inf,1,1,1,1,2,0,2,1,48,1,1,1,0,0
21778768000,21778768000,1036000,41.606704,-86.3556021,-111.96082,198.69534,-215.65225,0.00058025087,2.2485685e-05,0.0,-2.98005,5.2569313,-5.756208,-5.7229085,-0.00040349647,-0.0023179057,0.002978221,-0.058488835,0.036045305,-0.012124951,-1.0481353,0.07184153,229.4085,215.90111,0.37780187,0.4163442,0.14533338,0.10806007,inf,inf,inf,inf,1,1,1,1,2,0,2,1,48,1,1,1,0,0
21779264000,21779264000,1036000,41.606704,-86.3556021,-113.44223,201.34444,-218.48924,0.00058025087,2.2485685e-05,0.0,-2.9745662,5.2605486,-5.7571545,-5.7230344,-0.00040349647,-0.0023179057,0.002978221,-0.03189487,0.01672132,-0.080433734,-1.0485665,0.07184153,229.4085,218.7381,0.3599257,0.41013986,0.1369818,0.1052161,inf,inf,inf,inf,1,1,1,1,2,0,2,1,48,1,1,1,0,0
21779768000,21779768000,1036000,41.606704,-86.3556021,-114.936035,204.02249,-221.36224,0.00058025087,2.2485685e-05,0.0,-2.9720063,5.258529,-5.753679,-5.712431,-0.00040349647,-0.0023179057,0.002978221,-0.050384987,0.02563797,-0.002092745,-1.0488261,0.07184153,229.4085,221.6111,0.3839981,0.41471973,0.14864534,0.10862239,inf,inf,inf,inf,1,1,1,1,2,0,2,1,48,1,1,1,0,0
21780264000,21780264000,1036000,41.606704,-86.3556021,-116.41457,206.65862,-224.20145,0.00058025087,2.2485685e-05,0.0,-2.975362,5.258588,-5.7584953,-5.7211094,-0.00040349647,-0.0023179057,0.002978221,0.03558164,-0.058486458,-0.0065323594,-1.0488192,0.07184153,229.4085,224.4503,0.36429757,0.4113471,0.13903207,0.10594967,inf,inf,inf,inf,1,1,1,1,2,0,2,1,48,1,1,1,0,0
21780768000,21780768000,1036000,41.606704,-86.3556021,-117.91501,209.33772,-227.0784,0.00058025087,2.2485685e-05,0.0,-2.976001,5.255097,-5.754977,-5.7134047,-0.00040349647,-0.0023179057,0.002978221,0.019874737,-0.020697065,0.016407045,-1.0489213,0.07184153,229.4085,227.32726,0.3676095,0.41363853,0.14093655,0.10663221,inf,inf,inf,inf,1,1,1,1,2,0,2,1,48,1,1,1,0,0
21781264000,21781264000,1036000,41.606704,-86.3556021,-119.38664,211.96558,-229.90788,0.00058025087,2.2485685e-05,0.0,-2.9784553,5.249369,-5.7440724,-5.701271,-0.00040349647,-0.0023179057,0.002978221,-0.024643058,-0.0073556416,-0.13138825,-1.0490419,0.07184153,229.4085,230.15674,0.36870345,0.41227394,0.14100648,0.106578514,inf,inf,inf,inf,1,1,1,1,2,0,2,1,48,1,1,1,0,0
21781768000,21781768000,1036000,41.606704,-86.3556021,-120.87552,214.64398,-232.7769,0.00058025087,2.2485685e-05,0.0,-2.963305,5.25886,-5.7332625,-5.6898785,-0.00040349647,-0.0023179057,0.002978221,0.038549174,-0.00075542886,0.065426275,-1.0488591,0.07184153,229.4085,233.02576,0.37142393,0.41443297,0.14234532,0.107138835,inf,inf,inf,inf,1,1,1,1,2,0,2,1,48,1,1,1,0,0
21782264000,21782264000,1036000,41.606704,-86.3556021,-122.3452,217.27837,-235.61137,0.00058025087,2.2485685e-05,0.0,-2.9621806,5.2594986,-5.729217,-5.697439,-0.00040349647,-0.0023179057,0.002978221,0.03518384,-0.061149094,0.036706153,-1.0489537,0.07184153,229.4085,235.86023,0.3743829,0.4161372,0.14411351,0.10769509,inf,inf,inf,inf,1,1,1,1,2,0,2,1,48,1,1,1,0,0
21782768000,21782768000,1036000,41.606704,-86.3556021,-123.841736,219.94885,-238.48299,0.00058025087,2.2485685e-05,0.0,-2.957786,5.2582097,-5.7168136,-5.6867146,-0.00040349647,-0.0023179057,0.002978221,0.02738678,-0.07118382,0.009206992,-1.0490754,0.07184153,229.4085,238.73184,0.37644503,0.41536033,0.14470987,0.10782513,inf,inf,inf,inf,1,1,1,1,2,0,2,1,48,1,1,1,0,0
21783264000,21783264000,1036000,41.606704,-86.3556021,-125.30769,222.58508,-241.30757,0.00058025087,2.2485685e-05,0.0,-2.9588044,5.259395,-5.707199,-5.6824875,-0.00040349647,-0.0023179057,0.002978221,-0.039972432,-0.00042831743,0.0068060416,-1.0490079,0.07184153,229.4085,241.55643,0.35889837,0.41196704,0.13653196,0.10530239,inf,inf,inf,inf,1,1,1,1,2,0,2,1,48,1,1,1,0,0
21783760000,21783760000,1036000,41.606704,-86.3556021,-126.77736,225.2131,-244.1238,0.00058025087,2.2485685e-05,0.0,-2.9658716,5.261955,-5.687387,-5.6653085,-0.00040349647,-0.0023179057,0.002978221,-0.033610605,-0.051267896,-0.072434604,-1.0488813,0.07184153,229.4085,244.37265,0.38084745,0.41559035,0.14672393,0.108334005,inf,inf,inf,inf,1,1,1,1,2,0,2,1,48,1,1,1,0,0
21784264000,21784264000,1036000,41.606704,-86.3556021,-128.27094,227.87761,-246.98703,0.00058025087,2.2485685e-05,0.0,-2.9677033,5.259189,-5.666248,-5.6535826,-0.00040349647,-0.0023179057,0.002978221,0.037720602,0.04800868,-0.03306015,-1.0493464,0.07184153,229.4085,247.23589,0.36253852,0.4125299,0.13791639,0.10579081,inf,inf,inf,inf,1,1,1,1,2,0,2,1,48,1,1,1,0,0
21784760000,21784760000,1036000,41.606704,-86.3556021,-129.73665,230.5027,-249.7952,0.00058025087,2.2485685e-05,0.0,-2.9570668,5.257637,-5.6514673,-5.6440153,-0.00040349647,-0.0023179057,0.002978221,0.02013402,0.025619484,0.057476506,-1.0489742,0.07184153,229.4085,250.04405,0.36529785,0.41404837,0.13965008,0.106317304,inf,inf,inf,inf,1,1,1,1,2,0,2,1,48,1,1,1,0,0
21785264000,21785264000,1036000,41.606704,-86.3556021,-131.22052,233.1639,-252.64537,0.00058025087,2.2485685e-05,0.0,-2.9507582,5.2590346,-5.6361547,-5.6357117,-0.00040349647,-0.0023179057,0.002978221,-0.06339562,-0.079015225,0.040151116,-1.0489514,0.07184153,229.4085,252.89423,0.36728272,0.41305643,0.140263,0.10642381,inf,inf,inf,inf,1,1,1,1,2,0,2,1,48,1,1,1,0,0
21785768000,21785768000,1036000,41.606704,-86.3556021,-132.707,235.82729,-255.50723,0.00058025087,2.2485685e-05,0.0,-2.952046,5.2593417,-5.625456,-5.644664,-0.00040349647,-0.0023179057,0.002978221,0.1150609,-0.08579274,0.069066815,-1.0488154,0.07184153,229.4085,255.75609,0.37023336,0.4150359,0.14179833,0.10700276,inf,inf,inf,inf,1,1,1,1,2,0,2,1,48,1,1,1,0,0
21786264000,21786264000,1036000,41.606704,-86.3556021,-134.17445,238.44154,-258.3235,0.00058025087,2.2485685e-05,0.0,-2.9491255,5.257123,-5.617922,-5.64969,-0.00040349647,-0.0023179057,0.002978221,-0.04412561,0.007828081,0.031019498,-1.0487245,0.07184153,229.4085,258.57236,0.37208608,0.4135711,0.14256899,0.10705698,inf,inf,inf,inf,1,1,1,1,2,0,2,1,48,1,1,1,0,0
21786760000,21786760000,1036000,41.606704,-86.3556021,-135.64166,241.06184,-261.14032,0.00058025087,2.2485685e-05,0.0,-2.946801,5.2593956,-5.614015,-5.656561,-0.00040349647,-0.0023179057,0.002978221,-0.0643068,0.029836968,0.004594151,-1.0487088,0.07184153,229.4085,261.3892,0.37366492,0.41501555,0.14317264,0.10740152,inf,inf,inf,inf,1,1,1,1,2,0,2,1,48,1,1,1,0,0
21787264000,21787264000,1036000,41.606704,-86.3556021,-137.12715,243.72104,-264.0071,0.00058025087,2.2485685e-05,0.0,-2.9442916,5.2573295,-5.609983,-5.6636496,-0.00040349647,-0.0023179057,0.002978221,-0.06468581,-0.0046969946,-0.12412859,-1.0486045,0.07184153,229.4085,264.25598,0.3573302,0.41213933,0.13570473,0.10506895,inf,inf,inf,inf,1,1,1,1,2,0,2,1,48,1,1,1,0,0
21787768000,21787768000,1036000,41.606704,-86.3556021,-138.61592,246.37595,-266.87018,0.00058025087,2.2485685e-05,0.0,-2.9392025,5.2588477,-5.613257,-5.670562,-0.00040349647,-0.0023179057,0.002978221,0.059764013,-0.20776114,0.19870785,-1.0489547,0.07184153,229.4085,267.11905,0.37988973,0.41624194,0.1463536,0.10827476,inf,inf,inf,inf,1,1,1,1,2,0,2,1,48,1,1,1,0,0
21788264000,21788264000,1036000,41.606704,-86.3556021,-140.08783,248.99681,-269.69586,0.00058025087,2.2485685e-05,0.0,-2.9379485,5.26372,-5.6089168,-5.675857,-0.00040349647,-0.0023179057,0.002978221,0.030134873,-0.041373786,0.115956105,-1.048897,0.07184153,229.4085,269.94473,0.36139256,0.41260773,0.13757035,0.105646804,inf,inf,inf,inf,1,1,1,1,2,0,2,1,48,1,1,1,0,0
21788768000,21788768000,1036000,41.606704,-86.3556021,-141.57811,251.65964,-272.56335,0.00058025087,2.2485685e-05,0.0,-2.9380982,5.2641196,-5.615826,-5.682457,-0.00040349647,-0.0023179057,0.002978221,-0.051011987,-0.0060533504,0.004629541,-1.04885,0.07184153,229.4085,272.81223,0.38558376,0.419776,0.14919192,0.10930913,inf,inf,inf,inf,1,1,1,1,2,0,2,1,48,1,1,1,0,0
21789264000,21789264000,1036000,41.606704,-86.3556021,-143.0319,254.27867,-275.38138,0.00058025087,2.2485685e-05,0.0,-2.924145,5.273318,-5.618441,-5.6833725,-0.00040349647,-0.0023179057,0.002978221,0.04129854,-0.033241645,0.11612374,-1.0490249,0.07184153,229.4085,275.63025,0.36535513,0.41295108,0.13926445,0.1061658,inf,inf,inf,inf,1,1,1,1,2,0,2,1,48,1,1,1,0,0
21789768000,21789768000,1036000,41.606704,-86.3556021,-144.51306,256.9449,-278.25232,0.00058025087,2.2485685e-05,0.0,-2.9245076,5.271673,-5.6213794,-5.69035,-0.00040349647,-0.0023179057,0.002978221,0.042407088,-0.038107295,-0.022853786,-1.0494962,0.07184153,229.4085,278.5012,0.3684767,0.41489968,0.14105493,0.10677926,inf,inf,inf,inf,1,1,1,1,2,0,2,1,48,1,1,1,0,0
21790264000,21790264000,1036000,41.606704,-86.3556021,-145.9774,259.56836,-281.06958,0.00058025087,2.2485685e-05,0.0,-2.9307497,5.271255,-5.615276,-5.678784,-0.00040349647,-0.0023179057,0.002978221,-0.091221735,0.07843493,-0.08152711,-1.0492423,0.07184153,229.4085,281.31845,0.3705674,0.41336226,0.14202352,0.10686346,inf,inf,inf,inf,1,1,1,1,2,0,2,1,48,1,1,1,0,0
21790760000,21790760000,1036000,41.606704,-86.3556021,-147.44302,262.18927,-283.88385,0.00058025087,2.2485685e-05,0.0,-2.9362307,5.264535,-5.616946,-5.6780367,-0.00040349647,-0.0023179057,0.002978221,-0.05462888,-0.1443562,0.10770738,-1.0489377,0.07184153,229.4085,284.13272,0.3724196,0.41484132,0.1428397,0.10726123,inf,inf,inf,inf,1,1,1,1,2,0,2,1,48,1,1,1,0,0
21791264000,21791264000,1036000,41.606704,-86.3556021,-148.935,264.8537,-286.7518,0.00058025087,2.2485685e-05,0.0,-2.939563,5.2667327,-5.623276,-5.687063,-0.00040349647,-0.0023179057,0.002978221,0.026117839,-0.00778599,0.06880418,-1.0494577,0.07184153,229.4085,287.00067,0.37594712,0.41406488,0.14481798,0.107617065,inf,inf,inf,inf,1,1,1,1,2,0,2,1,48,1,1,1,0,0
21791760000,21791760000,1036000,41.606704,-86.3556021,-150.39726,267.4765,-289.5736,0.00058025087,2.2485685e-05,0.0,-2.9493408,5.267696,-5.6248355,-5.6896834,-0.00040349647,-0.0023179057,0.002978221,-0.029667402,-0.035564784,0.07423286,-1.0491599,0.07184153,229.4085,289.82248,0.37707463,0.41558704,0.14491299,0.10792363,inf,inf,inf,inf,1,1,1,1,2,0,2,1,48,1,1,1,0,0
21792264000,21792264000,1036000,41.606704,-86.3556021,-151.88237,270.15097,-292.44174,0.00058025087,2.2485685e-05,0.0,-2.950357,5.2663097,-5.6279354,-5.691258,-0.00040349647,-0.0023179057,0.002978221,0.09057738,-0.061220936,0.02694496,-1.0496168,0.07184153,229.4085,292.6906,0.35987425,0.4099678,0.13686073,0.10523318,inf,inf,inf,inf,1,1,1,1,2,0,2,1,48,1,1,1,0,0
21792768000,21792768000,1036000,41.606704,-86.3556021,-153.3605,272.81696,-295.31213,0.00058025087,2.2485685e-05,0.0,-2.9477956,5.264335,-5.6305237,-5.6941137,-0.00040349647,-0.0023179057,0.002978221,0.1280831,-0.036180936,0.08668837,-1.0497682,0.07184153,229.4085,295.561,0.3840048,0.41725394,0.14859077,0.108946726,inf,inf,inf,inf,1,1,1,1,2,0,2,1,48,1,1,1,0,0
21793264000,21793264000,1036000,41.606704,-86.3556021,-154.81218,275.44824,-298.1289,0.00058025087,2.2485685e-05,0.0,-2.9393291,5.2633314,-5.6229153,-5.6819844,-0.00040349647,-0.0023179057,0.002978221,-0.018323792,0.037541173,-0.072168246,-1.0490814,0.07184153,229.4085,298.37778,0.3643035,0.4136287,0.13893642,0.1062128,inf,inf,inf,inf,1,1,1,1,2,0,2,1,48,1,1,1,0,0
21793768000,21793768000,1036000,41.606704,-86.3556021,-156.29138,278.12216,-301.00284,0.00058025087,2.2485685e-05,0.0,-2.9411497,5.257816,-5.6224933,-5.689175,-0.00040349647,-0.0023179057,0.002978221,0.048188686,-0.06196182,-0.10721112,-1.0490161,0.07184153,229.4085,301.2517,0.36761037,0.41295224,0.1408267,0.1065721,inf,inf,inf,inf,1,1,1,1,2,0,2,1,48,1,1,1,0,0
21794264000,21794264000,1036000,41.606704,-86.3556021,-157.74501,280.74426,-303.82364,0.00058025087,2.2485685e-05,0.0,-2.92817,5.2598786,-5.6217046,-5.6868258,-0.00040349647,-0.0023179057,0.002978221,0.0558875,-0.011697241,0.008731086,-1.0493991,0.07184153,229.4085,304.0725,0.36863798,0.41157958,0.1408409,0.10652002,inf,inf,inf,inf,1,1,1,1,2,0,2,1,48,1,1,1,0,0
21794768000,21794768000,1036000,41.606704,-86.3556021,-159.22269,283.4093,-306.69275,0.00058025087,2.2485685e-05,0.0,-2.932029,5.248888,-5.6278424,-5.6924963,-0.00040349647,-0.0023179057,0.002978221,0.030541059,-0.08393145,0.020700442,-1.0491943,0.07184153,229.4085,306.94162,0.3713629,0.4138109,0.14224419,0.107106045,inf,inf,inf,inf,1,1,1,1,2,0,2,1,48,1,1,1,0,0
21795264000,21795264000,1036000,41.606704,-86.3556021,-160.6766,286.0309,-309.51755,0.00058025087,2.2485685e-05,0.0,-2.9383483,5.248743,-5.6403966,-5.7034163,-0.00040349647,-0.0023179057,0.002978221,-0.06313628,0.029744618,-0.05451689,-1.0492905,0.07184153,229.4085,309.76642,0.37432796,0.41554078,0.14405473,0.10767467,inf,inf,inf,inf,1,1,1,1,2,0,2,1,48,1,1,1,0,0
21795768000,21795768000,1036000,41.606704,-86.3556021,-162.15448,288.6998,-312.39664,0.00058025087,2.2485685e-05,0.0,-2.9421463,5.242553,-5.6547413,-5.719095,-0.00040349647,-0.0023179057,0.002978221,-0.018105328,-0.050283585,-0.030659199,-1.0495872,0.07184153,229.4085,312.6455,0.37639862,0.41477147,0.14472885,0.107809976,inf,inf,inf,inf,1,1,1,1,2,0,2,1,48,1,1,1,0,0
21796264000,21796264000,1036000,41.606704,-86.3556021,-163.61073,291.3382,-315.22522,0.00058025087,2.2485685e-05,0.0,-2.9513917,5.243034,-5.664904,-5.7201552,-0.00040349647,-0.0023179057,0.002978221,-0.09950843,0.031381074,-0.019330595,-1.049672,0.07184153,229.4085,315.4741,0.35886562,0.41143182,0.13657747,0.10529516,inf,inf,inf,inf,1,1,1,1,2,0,2,1,48,1,1,1,0,0
21796768000,21796768000,1036000,41.606704,-86.3556021,-165.09097,294.00894,-318.10526,0.00058025087,2.2485685e-05,0.0,-2.9573915,5.2445307,-5.6708536,-5.7216988,-0.00040349647,-0.0023179057,0.002978221,-0.103300475,-0.025869684,-0.1389748,-1.0492097,0.07184153,229.4085,318.35413,0.38149494,0.4158758,0.14711966,0.10852869,inf,inf,inf,inf,1,1,1,1,2,0,2,1,48,1,1,1,0,0
21797264000,21797264000,1036000,41.606704,-86.3556021,-166.5397,296.64035,-320.9298,0.00058025087,2.2485685e-05,0.0,-2.9664946,5.245921,-5.6788893,-5.717864,-0.00040349647,-0.0023179057,0.002978221,0.096836604,-0.0728289,0.24730985,-1.0491408,0.07184153,229.4085,321.17868,0.36247316,0.4124981,0.13800855,0.10588469,inf,inf,inf,inf,1,1,1,1,2,0,2,1,48,1,1,1,0,0
21797768000,21797768000,1036000,41.606704,-86.3556021,-168.01285,299.31458,-323.7999,0.00058025087,2.2485685e-05,0.0,-2.9624863,5.246086,-5.675699,-5.7070465,-0.00040349647,-0.0023179057,0.002978221,-0.029585198,-0.13351634,-0.027604463,-1.0493964,0.07184153,229.4085,324.04877,0.36592665,0.41193697,0.14009666,0.106283605,inf,inf,inf,inf,1,1,1,1,2,0,2,1,48,1,1,1,0,0
21798264000,21798264000,1036000,41.606704,-86.3556021,-169.4662,301.9358,-326.63022,0.00058025087,2.2485685e-05,0.0,-2.962,5.244507,-5.678195,-5.7099524,-0.00040349647,-0.0023179057,0.002978221,0.034268104,-0.027052794,0.02721225,-1.0497195,0.07184153,229.4085,326.8791,0.36724743,0.41348633,0.14038162,0.10659292,inf,inf,inf,inf,1,1,1,1,2,0,2,1,48,1,1,1,0,0
21798768000,21798768000,1036000,41.606704,-86.3556021,-170.93738,304.61234,-329.5157,0.00058025087,2.2485685e-05,0.0,-2.9532757,5.2409015,-5.6843085,-5.7216907,-0.00040349647,-0.0023179057,0.002978221,0.0022459044,0.0019642534,0.009885926,-1.0491371,0.07184153,229.4085,329.76456,0.37021327,0.41291788,0.14193551,0.10689969,inf,inf,inf,inf,1,1,1,1,2,0,2,1,48,1,1,1,0,0
21799264000,21799264000,1036000,41.606704,-86.3556021,-172.38785,307.2378,-332.35245,0.00058025087,2.2485685e-05,0.0,-2.9507637,5.2319775,-5.6895657,-5.7258034,-0.00040349647,-0.0023179057,0.002978221,0.014953274,-0.0071694297,-0.090778865,-1.049803,0.07184153,229.4085,332.60132,0.3721432,0.41466817,0.14275809,0.10732609,inf,inf,inf,inf,1,1,1,1,2,0,2,1,48,1,1,1,0,0
21799768000,21799768000,1036000,41.606704,-86.3556021,-173.8548,309.91,-335.23538,0.00058025087,2.2485685e-05,0.0,-2.940691,5.2344384,-5.6958113,-5.728167,-0.00040349647,-0.0023179057,0.002978221,-0.109886676,-0.018568624,-0.09437191,-1.0493804,0.07184153,229.4085,335.48425,0.37443334,0.41402358,0.14369252,0.10750973,inf,inf,inf,inf,1,1,1,1,2,0,2,1,48,1,1,1,0,0
21800264000,21800264000,1036000,41.606704,-86.3556021,-175.29613,312.54398,-338.0667,0.00058025087,2.2485685e-05,0.0,-2.936518,5.235977,-5.6947746,-5.719111,-0.00040349647,-0.0023179057,0.002978221,-0.011251507,-0.14741445,0.10458466,-1.0491703,0.07184153,229.4085,338.31558,0.35736966,0.4108106,0.13583086,0.10504317,inf,inf,inf,inf,1,1,1,1,2,0,2,1,48,1,1,1,0,0
21800768000,21800768000,1036000,41.606704,-86.3556021,-176.76793,315.20602,-340.9439,0.00058025087,2.2485685e-05,0.0,-2.933293,5.221585,-5.6956606,-5.7159467,-0.00040349647,-0.0023179057,0.002978221,0.09057001,0.018069986,0.11804134,-1.0493268,0.07184153,229.4085,341.19278,0.3799481,0.41509613,0.14647393,0.10824763,inf,inf,inf,inf,1,1,1,1,2,0,2,1,48,1,1,1,0,0
21801264000,21801264000,1036000,41.606704,-86.3556021,-178.21735,317.83072,-343.78098,0.00058025087,2.2485685e-05,0.0,-2.9326627,5.211339,-5.7033577,-5.724339,-0.00040349647,-0.0023179057,0.002978221,0.015759705,-0.07932172,0.028519826,-1.049535,0.07184153,229.4085,344.02985,0.36143073,0.4116914,0.13766131,0.10563469,inf,inf,inf,inf,1,1,1,1,2,0,2,1,48,1,1,1,0,0
21801760000,21801760000,1036000,41.606704,-86.3556021,-179.6724,320.45578,-346.61578,0.00058025087,2.2485685e-05,0.0,-2.9292173,5.2104187,-5.7097,-5.725851,-0.00040349647,-0.0023179057,0.002978221,0.01940496,-0.024672061,0.03806402,-1.0489346,0.07184153,229.4085,346.86465,0.384876,0.41566375,0.14893404,0.108851016,inf,inf,inf,inf,1,1,1,1,2,0,2,1,48,1,1,1,0,0
21802264000,21802264000,1036000,41.606704,-86.3556021,-181.14352,323.1253,-349.48398,0.00058025087,2.2485685e-05,0.0,-2.9196646,5.2102976,-5.711346,-5.7142777,-0.00040349647,-0.0023179057,0.002978221,-0.071702115,-0.020052323,-0.061526958,-1.0490465,0.07184153,229.4085,349.73285,0.365501,0.41273764,0.13943729,0.10625342,inf,inf,inf,inf,1,1,1,1,2,0,2,1,48,1,1,1,0,0
21802768000,21802768000,1036000,41.606704,-86.3556021,-182.6132,325.79572,-352.36987,0.00058025087,2.2485685e-05,0.0,-2.9120018,5.205064,-5.722783,-5.728696,-0.00040349647,-0.0023179057,0.002978221,0.03363873,-0.056919802,-0.036214538,-1.0495657,0.07184153,229.4085,352.61874,0.3686086,0.41214642,0.1412121,0.10657607,inf,inf,inf,inf,1,1,1,1,2,0,2,1,48,1,1,1,0,0
21803264000,21803264000,1036000,41.606704,-86.3556021,-184.06247,328.4193,-355.20483,0.00058025087,2.2485685e-05,0.0,-2.9113169,5.20756,-5.720316,-5.721856,-0.00040349647,-0.0023179057,0.002978221,-0.053320065,0.053848118,-0.101862535,-1.0494627,0.07184153,229.4085,355.4537,0.37074167,0.4138748,0.14220612,0.10703084,inf,inf,inf,inf,1,1,1,1,2,0,2,1,48,1,1,1,0,0
21803768000,21803768000,1036000,41.606704,-86.3556021,-185.53967,331.09082,-358.08072,0.00058025087,2.2485685e-05,0.0,-2.9198778,5.2045765,-5.724676,-5.718866,-0.00040349647,-0.0023179057,0.002978221,-0.05385515,-0.1117191,0.023984285,-1.0494382,0.07184153,229.4085,358.3296,0.37327728,0.41320962,0.14332275,0.107243955,inf,inf,inf,inf,1,1,1,1,2,0,2,1,48,1,1,1,0,0
21804264000,21804264000,1036000,41.606704,-86.3556021,-186.99617,333.7192,-360.9101,0.00058025087,2.2485685e-05,0.0,-2.9257367,5.2006097,-5.724295,-5.7137656,-0.00040349647,-0.0023179057,0.002978221,0.08732679,-0.092413865,0.028432282,-1.0492184,0.07184153,229.4085,361.15897,0.37607685,0.41498888,0.14491977,0.10778227,inf,inf,inf,inf,1,1,1,1,2,0,2,1,48,1,1,1,0,0
21804760000,21804760000,1036000,41.606704,-86.3556021,-188.43996,336.33777,-363.74365,0.00058025087,2.2485685e-05,0.0,-2.916757,5.2032905,-5.7264075,-5.7147727,-0.00040349647,-0.0023179057,0.002978221,-0.02236932,-0.07789754,-0.026045429,-1.0493308,0.07184153,229.4085,363.99252,0.37717843,0.41371784,0.14497471,0.10773882,inf,inf,inf,inf,1,1,1,1,2,0,2,1,48,1,1,1,0,0
21805264000,21805264000,1036000,41.606704,-86.3556021,-189.91777,339.00095,-366.61395,0.00058025087,2.2485685e-05,0.0,-2.924858,5.20953,-5.7260437,-5.708439,-0.00040349647,-0.0023179057,0.002978221,0.03679961,-0.04872664,0.05041336,-1.0492523,0.07184153,229.4085,366.86282,0.35994866,0.41095725,0.1369374,0.10533876,inf,inf,inf,inf,1,1,1,1,2,0,2,1,48,1,1,1,0,0
21805768000,21805768000,1036000,41.606704,-86.3556021,-191.396,341.6669,-369.49832,0.00058025087,2.2485685e-05,0.0,-2.922859,5.2141476,-5.7344947,-5.7221856,-0.00040349647,-0.0023179057,0.002978221,0.0007671846,0.031370193,-0.011252302,-1.049146,0.07184153,229.4085,369.7472,0.3840094,0.41828895,0.1486058,0.10902111,inf,inf,inf,inf,1,1,1,1,2,0,2,1,48,1,1,1,0,0
21806264000,21806264000,1036000,41.606704,-86.3556021,-192.84174,344.28763,-372.34152,0.00058025087,2.2485685e-05,0.0,-2.9170911,5.2199826,-5.740087,-5.729857,-0.00040349647,-0.0023179057,0.002978221,0.06456223,0.07922989,-0.0590664,-1.0495464,0.07184153,229.4085,372.5904,0.36430752,0.41173688,0.13900425,0.105950385,inf,inf,inf,inf,1,1,1,1,2,0,2,1,48,1,1,1,0,0
21806760000,21806760000,1036000,41.606704,-86.3556021,-194.18326,346.77405,-374.63,0.00058025087,2.2485685e-05,0.0,-2.19586,4.3319254,-2.7568567,-2.7560847,-0.00040349647,-0.0023179057,0.002978221,3.9509103,-4.2079678,6.264161,-1.0373923,0.07184153,229.4085,374.87888,0.366814,0.4133691,0.13368653,0.104708135,inf,inf,inf,inf,1,1,1,1,2,0,2,1,48,1,1,1,0,0
21807264000,21807264000,1036000,41.606704,-86.3556021,-194.88687,348.3827,-375.5941,0.00058025087,2.2485685e-05,0.0,-1.006266,1.8607808,-1.377085,-1.3956476,-0.00040349647,-0.0023179057,0.002978221,-0.1206173,-4.909531,-0.66128004,-1.0635026,0.07184153,229.4085,375.84296,0.36816177,0.41231632,0.14100605,0.09884404,inf,inf,inf,inf,1,1,1,1,2,0,2,1,48,1,1,1,0,0
21807768000,21807768000,1036000,41.606704,-86.3556021,-195.34998,348.96564,-376.28134,0.00058025087,2.2485685e-05,0.0,-0.48832923,0.4178524,-1.1135889,-1.1111917,-0.00040349647,-0.0023179057,0.002978221,1.4416016,-1.1293864,0.78916353,-1.0640355,0.07184153,229.4085,376.5302,0.3705412,0.41060522,0.15236515,0.095712066,inf,inf,inf,inf,1,1,1,1,2,0,2,1,48,1,1,1,0,0
21808264000,21808264000,1036000,41.606704,-86.3556021,-195.54396,349.13672,-376.7483,0.00058025087,2.2485685e-05,0.0,-0.2276862,0.21549147,-0.7724082,-0.746036,-0.00040349647,-0.0023179057,0.002978221,0.3750011,-0.7423335,1.7731262,-1.0601809,0.07184153,229.4085,376.99716,0.37359062,0.41083312,0.15584382,0.094722986,inf,inf,inf,inf,1,1,1,1,2,0,2,1,48,1,1,1,0,0
21808760000,21808760000,1036000,41.606704,-86.3556021,-195.5777,349.08563,-376.93106,0.00058025087,2.2485685e-05,0.0,0.27331024,-0.46098045,-0.13498871,-0.102543175,-0.00040349647,-0.0023179057,0.002978221,1.0220258,-1.58423,0.82937896,-1.061016,0.07184153,229.4085,377.17993,0.37513414,0.41089392,0.15860765,0.09559489,inf,inf,inf,inf,1,1,1,1,2,0,2,1,48,1,1,1,0,0
21809264000,21809264000,1036000,41.606704,-86.3556021,-195.37273,348.63815,-376.88812,0.00058025087,2.2485685e-05,0.0,0.6532566,-1.2530575,0.2995928,0.3216826,-0.00040349647,-0.0023179057,0.002978221,0.6546769,-1.1795696,0.9596058,-1.0630618,0.07184153,229.4085,377.137,0.35841438,0.4051929,0.15131071,0.09553142,inf,inf,inf,inf,1,1,1,1,2,0,2,1,48,1,1,1,0,0
21809768000,21809768000,1036000,41.606704,-86.3556021,-194.99815,347.8871,-376.63077,0.00058025087,2.2485685e-05,0.0,0.8847731,-1.5807354,0.7516848,0.7579224,-0.00040349647,-0.0023179057,0.002978221,0.12460686,-0.31556585,0.64583576,-1.0525864,0.07184153,229.4085,376.87964,0.3819854,0.40672043,0.16473587,0.10063605,inf,inf,inf,inf,1,1,1,1,2,0,2,1,48,1,1,1,0,0
21810264000,21810264000,1036000,41.606704,-86.3556021,-194.55876,347.04248,-376.2519,0.00058025087,2.2485685e-05,0.0,0.87584573,-1.6202148,0.81293905,0.8096255,-0.00040349647,-0.0023179057,0.002978221,0.048051294,0.3346558,0.3707017,-1.0549246,0.07184153,229.4085,376.50076,0.36271092,0.4038163,0.15288891,0.10123145,inf,inf,inf,inf,1,1,1,1,2,0,2,1,48,1,1,1,0,0
21810768000,21810768000,1036000,41.606704,-86.3556021,-194.11296,346.26035,-375.80664,0.00058025087,2.2485685e-05,0.0,0.80176985,-1.2544277,0.9891327,0.97499406,-0.00040349647,-0.0023179057,0.002978221,-0.27173522,0.94486725,0.12219877,-1.0446068,0.07184153,229.4085,376.0555,0.36653978,0.40256196,0.15578371,0.10457872,inf,inf,inf,inf,1,1,1,1,2,0,2,1,48,1,1,1,0,0
21811264000,21811264000,1036000,41.606704,-86.3556021,-193.72719,345.69574,-375.32498,0.00058025087,2.2485685e-05,0.0,0.6095722,-0.93044895,1.0187284,0.9967511,-0.00040349647,-0.0023179057,0.002978221,-0.57242304,0.44780222,-0.054364152,-1.0498877,0.07184153,229.4085,375.57385,0.36808002,0.40380892,0.15711075,0.10764548,inf,inf,inf,inf,1,1,1,1,2,0,2,1,48,1,1,1,0,0
21811768000,21811768000,1036000,41.606704,-86.3556021,-193.42165,345.2627,-374.84552,0.00058025087,2.2485685e-05,0.0,0.43347692,-0.67928195,1.052061,1.0080346,-0.00040349647,-0.0023179057,0.002978221,-0.2751302,0.5789402,0.07919402,-1.051126,0.07184153,229.4085,375.0944,0.37136218,0.40599066,0.15957342,0.110842064,inf,inf,inf,inf,1,1,1,1,2,0,2,1,48,1,1,1,0,0
21812264000,21812264000,1036000,41.606704,-86.3556021,-193.21231,344.98056,-374.35355,0.00058025087,2.2485685e-05,0.0,0.25040582,-0.40326518,1.0706761,1.017488,-0.00040349647,-0.0023179057,0.002978221,-0.39558372,0.4588497,0.025328184,-1.0517123,0.07184153,229.4085,374.60242,0.3734711,0.4053512,0.1601714,0.113136254,inf,inf,inf,inf,1,1,1,1,2,0,2,1,48,1,1,1,0,0
21812768000,21812768000,1036000,41.606704,-86.3556021,-193.0801,344.822,-373.8665,0.00058025087,2.2485685e-05,0.0,0.095961355,-0.17887552,1.0578216,0.9903233,-0.00040349647,-0.0023179057,0.002978221,-0.3230372,0.3595085,0.07238512,-1.0519779,0.07184153,229.4085,374.11536,0.376015,0.4056645,0.1602017,0.11515886,inf,inf,inf,inf,1,1,1,1,2,0,2,1,48,1,1,1,0,0
21813264000,21813264000,1036000,41.606704,-86.3556021,-193.0216,344.7745,-373.3917,0.00058025087,2.2485685e-05,0.0,-0.008543642,-0.04691665,1.0727655,0.99250996,-0.00040349647,-0.0023179057,0.002978221,-0.15589881,0.26091397,0.060227633,-1.0516219,0.07184153,229.4085,373.64056,0.35832223,0.4037953,0.1480691,0.11336533,inf,inf,inf,inf,1,1,1,1,2,0,2,1,48,1,1,1,0,0
21813768000,21813768000,1036000,41.606704,-86.3556021,-193.01964,344.77692,-372.89392,0.00058025087,2.2485685e-05,0.0,-0.0668553,0.004621662,1.0708228,0.9915666,-0.00040349647,-0.0023179057,0.002978221,-0.10108388,-0.0073012826,0.012662198,-1.0505496,0.07184153,229.4085,373.1428,0.38202283,0.40681544,0.15885572,0.11830599,inf,inf,inf,inf,1,1,1,1,2,0,2,1,48,1,1,1,0,0
21814264000,21814264000,1036000,41.606704,-86.3556021,-193.03468,344.7865,-372.4054,0.00058025087,2.2485685e-05,0.0,-0.068442486,0.004636056,1.0716473,0.99184996,-0.00040349647,-0.0023179057,0.002978221,-0.026586438,0.00283695,-0.090899006,-1.0494974,0.07184153,229.4085,372.65427,0.3626544,0.40493947,0.14583185,0.11562777,inf,inf,inf,inf,1,1,1,1,2,0,2,1,48,1,1,1,0,0
21814768000,21814768000,1036000,41.606704,-86.3556021,-193.06606,344.795,-371.90036,0.00058025087,2.2485685e-05,0.0,-0.06223748,-0.0020025666,1.0800772,1.0070119,-0.00040349647,-0.0023179057,0.002978221,0.17534544,-0.016087687,-0.10767585,-1.0489526,0.07184153,229.4085,372.14923,0.38784513,0.41424197,0.15705912,0.12099977,inf,inf,inf,inf,1,1,1,1,2,0,2,1,48,1,1,1,0,0
21815264000,21815264000,1036000,41.606704,-86.3556021,-193.10098,344.79843,-371.40277,0.00058025087,2.2485685e-05,0.0,-0.039478425,-0.019253302,1.0617372,0.9926115,-0.00040349647,-0.0023179057,0.002978221,0.13809383,-0.104127444,0.083094396,-1.0488886,0.07184153,229.4085,371.65164,0.36668718,0.40867397,0.14422746,0.11715368,inf,inf,inf,inf,1,1,1,1,2,0,2,1,48,1,1,1,0,0
21815768000,21815768000,1036000,41.606704,-86.3556021,-193.12106,344.7972,-370.91077,0.00058025087,2.2485685e-05,0.0,-0.004462556,-0.028960321,1.0628989,0.9871399,-0.00040349647,-0.0023179057,0.002978221,0.105515935,-0.07226856,0.040025387,-1.0487485,0.07184153,229.4085,371.15964,0.36980262,0.41217837,0.14488322,0.1181027,inf,inf,inf,inf,1,1,1,1,2,0,2,1,48,1,1,1,0,0
21816264000,21816264000,1036000,41.606704,-86.3556021,-193.12419,344.7867,-370.41385,0.00058025087,2.2485685e-05,0.0,0.017520634,-0.036178887,1.0629616,0.9929677,-0.00040349647,-0.0023179057,0.002978221,0.017585255,0.02482064,-0.012670706,-1.0490352,0.07184153,229.4085,370.66272,0.37180632,0.4120964,0.14497583,0.11834953,inf,inf,inf,inf,1,1,1,1,2,0,2,1,48,1,1,1,0,0
21816768000,21816768000,1036000,41.606704,-86.3556021,-193.12598,344.7799,-369.91843,0.00058025087,2.2485685e-05,0.0,0.025801599,-0.032330733,1.060984,0.9890505,-0.00040349647,-0.0023179057,0.002978221,-0.027921326,-0.03908299,-0.01645467,-1.0494045,0.07184153,229.4085,370.1673,0.37425518,0.41527638,0.14556716,0.118967,inf,inf,inf,inf,1,1,1,1,2,0,2,1,48,1,1,1,0,0
21817264000,21817264000,1036000,41.606704,-86.3556021,-193.12068,344.76532,-369.4248,0.00058025087,2.2485685e-05,0.0,0.03154851,-0.02916433,1.0556544,0.989038,-0.00040349647,-0.0023179057,0.002978221,0.0034081691,0.123572744,-0.16857688,-1.0493538,0.07184153,229.4085,369.67368,0.37695703,0.417875,0.14681847,0.11957203,inf,inf,inf,inf,1,1,1,1,2,0,2,1,48,1,1,1,0,0
21817760000,21817760000,1036000,41.606704,-86.3556021,-193.11148,344.74207,-368.9206,0.00058025087,2.2485685e-05,0.0,0.029602824,-0.02307472,1.0467699,0.9937281,-0.00040349647,-0.0023179057,0.002978221,0.088828854,0.15656257,-0.16034958,-1.0488975,0.07184153,229.4085,369.16946,0.37786838,0.41715196,0.14662513,0.11941116,inf,inf,inf,inf,1,1,1,1,2,0,2,1,48,1,1,1,0,0
21818264000,21818264000,1036000,41.606704,-86.3556021,-193.09956,344.71954,-368.40918,0.00058025087,2.2485685e-05,0.0,0.020685334,-0.00601496,1.021014,0.9803069,-0.00040349647,-0.0023179057,0.002978221,-0.1406638,0.023766082,-1.3443866,-1.049046,0.07184153,229.4085,368.65805,0.36035532,0.41415086,0.13826339,0.11602355,inf,inf,inf,inf,1,1,1,1,2,0,2,1,48,1,1,1,0,0
21818768000,21818768000,1036000,41.606704,-86.3556021,-193.08823,344.7066,-367.91272,0.00058025087,2.2485685e-05,0.0,0.0076262336,0.012762816,1.0309561,0.98980576,-0.00040349647,-0.0023179057,0.002978221,-0.002932023,0.06689061,0.099091716,-1.0494714,0.07184153,229.4085,368.1616,0.38447747,0.4201606,0.15016443,0.120516255,inf,inf,inf,inf,1,1,1,1,2,0,2,1,48,1,1,1,0,0
21819264000,21819264000,1036000,41.606704,-86.3556021,-193.07751,344.7021,-367.41653,0.00058025087,2.2485685e-05,0.0,-9.786454e-06,0.02189786,1.0321993,0.9938972,-0.00040349647,-0.0023179057,0.002978221,-0.0677032,0.15194757,0.034036983,-1.049639,0.07184153,229.4085,367.6654,0.3646077,0.41607928,0.14025454,0.11673939,inf,inf,inf,inf,1,1,1,1,2,0,2,1,48,1,1,1,0,0
21819760000,21819760000,1036000,41.606704,-86.3556021,-193.06004,344.7013,-366.92752,0.00058025087,2.2485685e-05,0.0,-0.008341738,0.02637765,1.0402939,0.99693674,-0.00040349647,-0.0023179057,0.002978221,-0.04757153,0.07077685,0.0029280148,-1.0493523,0.07184153,229.4085,367.1764,0.36719027,0.41534886,0.14184393,0.117044,inf,inf,inf,inf,1,1,1,1,2,0,2,1,48,1,1,1,0,0
21820264000,21820264000,1036000,41.606704,-86.3556021,-193.05067,344.70505,-366.4253,0.00058025087,2.2485685e-05,0.0,-0.026371256,0.025405478,1.0449018,0.9991789,-0.00040349647,-0.0023179057,0.002978221,-0.0024850906,0.034327347,-0.012788053,-1.0494665,0.07184153,229.4085,366.67416,0.36892754,0.4179265,0.14222822,0.11752748,inf,inf,inf,inf,1,1,1,1,2,0,2,1,48,1,1,1,0,0
21820760000,21820760000,1036000,41.606704,-86.3556021,-193.0481,344.71185,-365.9259,0.00058025087,2.2485685e-05,0.0,-0.028175132,0.02443209,1.0499729,1.0065192,-0.00040349647,-0.0023179057,0.002978221,0.048231076,0.036145907,-0.08966128,-1.0493163,0.07184153,229.4085,366.17477,0.37092608,0.41693616,0.14327031,0.11767718,inf,inf,inf,inf,1,1,1,1,2,0,2,1,48,1,1,1,0,0
21821264000,21821264000,1036000,41.606704,-86.3556021,-193.04753,344.71204,-365.41367,0.00058025087,2.2485685e-05,0.0,-0.03413413,0.015915604,1.0397227,1.0030202,-0.00040349647,-0.0023179057,0.002978221,0.2953589,0.19067721,0.19989249,-1.0493184,0.07184153,229.4085,365.66254,0.3745824,0.41956192,0.14544226,0.11856024,inf,inf,inf,inf,1,1,1,1,2,0,2,1,48,1,1,1,0,0
21821768000,21821768000,1036000,41.606704,-86.3556021,-193.04968,344.71265,-364.9095,0.00058025087,2.2485685e-05,0.0,-0.032191623,0.019714363,1.0346333,0.9976139,-0.00040349647,-0.0023179057,0.002978221,0.07933697,-0.06100284,0.006357144,-1.049229,0.07184153,229.4085,365.15836,0.3766429,0.41892853,0.14609413,0.118733786,inf,inf,inf,inf,1,1,1,1,2,0,2,1,48,1,1,1,0,0
21822264000,21822264000,1036000,41.606704,-86.3556021,-193.0441,344.71243,-364.4143,0.00058025087,2.2485685e-05,0.0,-0.03138772,0.012208574,1.0408565,1.0037508,-0.00040349647,-0.0023179057,0.002978221,-0.04922412,0.0011861381,0.019436637,-1.0492959,0.07184153,229.4085,364.66318,0.35902557,0.41491002,0.13766783,0.11536516,inf,inf,inf,inf,1,1,1,1,2,0,2,1,48,1,1,1,0,0
21822768000,21822768000,1036000,41.606704,-86.3556021,-193.04196,344.7131,-363.90237,0.00058025087,2.2485685e-05,0.0,-0.036651336,0.012779251,1.0339042,1.0028886,-0.00040349647,-0.0023179057,0.002978221,-0.04795677,0.008878863,-0.048367366,-1.0491138,0.07184153,229.4085,364.15125,0.38174754,0.42024136,0.1483459,0.119631484,inf,inf,inf,inf,1,1,1,1,2,0,2,1,48,1,1,1,0,0
21823264000,21823264000,1036000,41.606704,-86.3556021,-193.038,344.7101,-363.40436,0.00058025087,2.2485685e-05,0.0,-0.03725489,0.010865462,1.0274504,0.9978742,-0.00040349647,-0.0023179057,0.002978221,0.02254394,0.026921988,-0.0703382,-1.0491029,0.07184153,229.4085,363.65323,0.3626808,0.4161224,0.13908465,0.11609716,inf,inf,inf,inf,1,1,1,1,2,0,2,1,48,1,1,1,0,0
21823760000,21823760000,1036000,41.606704,-86.3556021,-193.03542,344.71335,-362.90213,0.00058025087,2.2485685e-05,0.0,-0.034753367,0.014551566,1.0265774,1.0023395,-0.00040349647,-0.0023179057,0.002978221,-0.09098238,-0.10229018,-0.18266314,-1.0492882,0.07184153,229.4085,363.151,0.36552718,0.4180625,0.14087799,0.116853125,inf,inf,inf,inf,1,1,1,1,2,0,2,1,48,1,1,1,0,0
21824264000,21824264000,1036000,41.606704,-86.3556021,-193.04018,344.71716,-362.38895,0.00058025087,2.2485685e-05,0.0,-0.03641756,0.013530162,1.0234307,1.0072216,-0.00040349647,-0.0023179057,0.002978221,-0.22104986,-0.17181636,1.3910325,-1.0490074,0.07184153,229.4085,362.63782,0.3675182,0.4173512,0.14144011,0.11706387,inf,inf,inf,inf,1,1,1,1,2,0,2,1,48,1,1,1,0,0
21824768000,21824768000,1036000,41.606704,-86.3556021,-193.05023,344.7223,-361.87454,0.00058025087,2.2485685e-05,0.0,-0.034378443,0.015920324,1.004171,0.99769765,-0.00040349647,-0.0023179057,0.002978221,0.031108305,0.054997563,-0.078673534,-1.0489025,0.07184153,229.4085,362.1234,0.3704909,0.4196824,0.14299352,0.1178219,inf,inf,inf,inf,1,1,1,1,2,0,2,1,48,1,1,1,0,0
21825264000,21825264000,1036000,41.606704,-86.3556021,-193.06136,344.72723,-361.3776,0.00058025087,2.2485685e-05,0.0,-0.028085671,0.018941812,1.0002238,0.99541104,-0.00040349647,-0.0023179057,0.002978221,0.053572096,0.10627439,0.04274578,-1.0490696,0.07184153,229.4085,361.62646,0.3723537,0.4184026,0.14366372,0.11796324,inf,inf,inf,inf,1,1,1,1,2,0,2,1,48,1,1,1,0,0
21825760000,21825760000,1036000,41.606704,-86.3556021,-193.07162,344.72818,-360.88016,0.00058025087,2.2485685e-05,0.0,-0.015810208,0.007008081,1.003364,0.9995032,-0.00040349647,-0.0023179057,0.002978221,0.09406083,-0.05621272,-0.059709013,-1.0488031,0.07184153,229.4085,361.12903,0.3739379,0.4200146,0.1441308,0.118372515,inf,inf,inf,inf,1,1,1,1,2,0,2,1,48,1,1,1,0,0
21826264000,21826264000,1036000,41.606704,-86.3556021,-193.07864,344.72116,-360.37054,0.00058025087,2.2485685e-05,0.0,-0.008986095,0.0074592317,0.99822253,0.9994561,-0.00040349647,-0.0023179057,0.002978221,-0.040525705,0.052300498,-0.023989068,-1.049097,0.07184153,229.4085,360.61942,0.3575114,0.41359937,0.13647017,0.11491794,inf,inf,inf,inf,1,1,1,1,2,0,2,1,48,1,1,1,0,0
21826768000,21826768000,1036000,41.606704,-86.3556021,-193.08531,344.71582,-359.8583,0.00058025087,2.2485685e-05,0.0,-0.0016482215,0.008661112,0.98695,0.99525845,-0.00040349647,-0.0023179057,0.002978221,0.09915603,0.024042232,-0.047399722,-1.0492636,0.07184153,229.4085,360.10718,0.38019022,0.4216903,0.14718911,0.11956012,inf,inf,inf,inf,1,1,1,1,2,0,2,1,48,1,1,1,0,0
21827264000,21827264000,1036000,41.606704,-86.3556021,-193.08768,344.7037,-359.35226,0.00058025087,2.2485685e-05,0.0,0.0009142174,0.014104704,0.9841387,1.0018911,-0.00040349647,-0.0023179057,0.002978221,0.1259162,0.13881601,-0.19647093,-1.0490758,0.07184153,229.4085,359.60114,0.361583,0.41742778,0.13822258,0.116057925,inf,inf,inf,inf,1,1,1,1,2,0,2,1,48,1,1,1,0,0
21827760000,21827760000,1036000,41.606704,-86.3556021,-193.09259,344.69382,-358.8546,0.00058025087,2.2485685e-05,0.0,0.002163498,0.0283372,0.9731534,0.9934925,-0.00040349647,-0.0023179057,0.002978221,0.036770456,0.121074855,0.018588202,-1.0491024,0.07184153,229.4085,359.1035,0.38513514,0.4222838,0.14957438,0.12040721,inf,inf,inf,inf,1,1,1,1,2,0,2,1,48,1,1,1,0,0
21828264000,21828264000,1036000,41.606704,-86.3556021,-193.08733,344.68823,-358.3604,0.00058025087,2.2485685e-05,0.0,0.0072341105,0.030311283,0.9790316,0.99226344,-0.00040349647,-0.0023179057,0.002978221,0.017065628,-0.079270676,-0.011151719,-1.0492347,0.07184153,229.4085,358.60928,0.36554986,0.41839227,0.13974388,0.11683187,inf,inf,inf,inf,1,1,1,1,2,0,2,1,48,1,1,1,0,0
21828768000,21828768000,1036000,41.606704,-86.3556021,-193.08398,344.68396,-357.85547,0.00058025087,2.2485685e-05,0.0,0.0018270528,0.03891533,0.98033327,0.99517,-0.00040349647,-0.0023179057,0.002978221,-0.0011085039,0.080282696,0.075960465,-1.0490403,0.07184153,229.4085,358.10434,0.36867434,0.41775978,0.14144337,0.117305845,inf,inf,inf,inf,1,1,1,1,2,0,2,1,48,1,1,1,0,0
21829264000,21829264000,1036000,41.606704,-86.3556021,-193.07907,344.6849,-357.35614,0.00058025087,2.2485685e-05,0.0,-0.0006787883,0.04139206,0.9793557,0.99739164,-0.00040349647,-0.0023179057,0.002978221,0.047127865,0.030039327,-0.056147635,-1.0492233,0.07184153,229.4085,357.605,0.37075853,0.4165835,0.14238372,0.117530264,inf,inf,inf,inf,1,1,1,1,2,0,2,1,48,1,1,1,0,0
21829760000,21829760000,1036000,41.606704,-86.3556021,-193.08203,344.67877,-356.85925,0.00058025087,2.2485685e-05,0.0,-0.007700372,0.041320134,0.98422503,1.0033659,-0.00040349647,-0.0023179057,0.002978221,-0.0411307,-0.008878069,-0.08369895,-1.0493287,0.07184153,229.4085,357.10812,0.37260395,0.41837487,0.14312816,0.11804257,inf,inf,inf,inf,1,1,1,1,2,0,2,1,48,1,1,1,0,0
21830264000,21830264000,1036000,41.606704,-86.3556021,-193.0835,344.68134,-356.35428,0.00058025087,2.2485685e-05,0.0,-0.0026855008,0.042974,0.9794727,0.9986291,-0.00040349647,-0.0023179057,0.002978221,0.058871396,0.08626702,-0.12635444,-1.0492196,0.07184153,229.4085,356.60315,0.3761286,0.42086625,0.14504729,0.118927054,inf,inf,inf,inf,1,1,1,1,2,0,2,1,48,1,1,1,0,0
21830760000,21830760000,1036000,41.606704,-86.3556021,-193.08362,344.68744,-355.85446,0.00058025087,2.2485685e-05,0.0,-0.0007664273,0.042082965,0.97588575,0.9992043,-0.00040349647,-0.0023179057,0.002978221,-0.17110258,0.0072426433,-1.3347446,-1.0492527,0.07184153,229.4085,356.10333,0.37717122,0.41954374,0.14503245,0.118895836,inf,inf,inf,inf,1,1,1,1,2,0,2,1,48,1,1,1,0,0
21831264000,21831264000,1036000,41.606704,-86.3556021,-193.07997,344.68796,-355.35745,0.00058025087,2.2485685e-05,0.0,-0.00011224089,0.039256673,0.97339183,0.9918185,-0.00040349647,-0.0023179057,0.002978221,0.037075434,0.041530505,0.04522496,-1.0492699,0.07184153,229.4085,355.60632,0.3598878,0.416095,0.13692787,0.11566255,inf,inf,inf,inf,1,1,1,1,2,0,2,1,48,1,1,1,0,0
21831768000,21831768000,1036000,41.606704,-86.3556021,-193.08014,344.696,-354.86377,0.00058025087,2.2485685e-05,0.0,-0.0076940595,0.039302267,0.98400134,0.9943716,-0.00040349647,-0.0023179057,0.002978221,-0.042562887,-0.02894817,0.0051985793,-1.049518,0.07184153,229.4085,355.11264,0.38404065,0.42169997,0.14856741,0.12025562,inf,inf,inf,inf,1,1,1,1,2,0,2,1,48,1,1,1,0,0
21832264000,21832264000,1036000,41.606704,-86.3556021,-193.07849,344.69983,-354.37024,0.00058025087,2.2485685e-05,0.0,-0.0118203,0.025670085,0.9898384,0.9983188,-0.00040349647,-0.0023179057,0.002978221,0.0140266735,-0.028800184,0.04325894,-1.0496039,0.07184153,229.4085,354.6191,0.36432558,0.41459137,0.13890268,0.11629415,inf,inf,inf,inf,1,1,1,1,2,0,2,1,48,1,1,1,0,0
21832768000,21832768000,1036000,41.606704,-86.3556021,-193.07509,344.69992,-353.87766,0.00058025087,2.2485685e-05,0.0,-0.011108871,0.025267715,0.999438,0.9990791,-0.00040349647,-0.0023179057,0.002978221,-0.08540139,0.010877467,-0.014273511,-1.049722,0.07184153,229.4085,354.12653,0.36763677,0.41722226,0.14076687,0.11720242,inf,inf,inf,inf,1,1,1,1,2,0,2,1,48,1,1,1,0,0
21833264000,21833264000,1036000,41.606704,-86.3556021,-193.06964,344.7067,-353.376,0.00058025087,2.2485685e-05,0.0,-0.010839399,0.025000915,1.0029255,1.00636,-0.00040349647,-0.0023179057,0.002978221,-0.12837605,-0.09565417,-0.09359332,-1.0496577,0.07184153,229.4085,353.62488,0.36872208,0.4160069,0.14082788,0.11719069,inf,inf,inf,inf,1,1,1,1,2,0,2,1,48,1,1,1,0,0
21833768000,21833768000,1036000,41.606704,-86.3556021,-193.06102,344.7134,-352.8744,0.00058025087,2.2485685e-05,0.0,-0.013463769,0.020839853,1.0024917,1.0049993,-0.00040349647,-0.0023179057,0.002978221,-0.22871433,-0.20512317,1.4266528,-1.0494454,0.07184153,229.4085,353.12326,0.37150243,0.4184985,0.14227135,0.11793294,inf,inf,inf,inf,1,1,1,1,2,0,2,1,48,1,1,1,0,0
21834264000,21834264000,1036000,41.606704,-86.3556021,-193.05267,344.7154,-352.38586,0.00058025087,2.2485685e-05,0.0,-0.018957704,0.01714025,1.0031112,0.9991009,-0.00040349647,-0.0023179057,0.002978221,-0.03641099,0.07188857,0.056875803,-1.0494106,0.07184153,229.4085,352.63474,0.3745813,0.42047107,0.14412051,0.11868991,inf,inf,inf,inf,1,1,1,1,2,0,2,1,48,1,1,1,0,0
21834768000,21834768000,1036000,41.606704,-86.3556021,-193.05408,344.7215,-351.88492,0.00058025087,2.2485685e-05,0.0,-0.027576206,0.017315572,1.0058327,0.9988233,-0.00040349647,-0.0023179057,0.002978221,-0.043245003,-0.028913815,0.06240413,-1.0490843,0.07184153,229.4085,352.1338,0.37661636,0.41981813,0.14466928,0.11888828,inf,inf,inf,inf,1,1,1,1,2,0,2,1,48,1,1,1,0,0
21835264000,21835264000,1036000,41.606704,-86.3556021,-193.06024,344.722,-351.39795,0.00058025087,2.2485685e-05,0.0,-0.026798544,0.008762394,1.0133969,0.99961513,-0.00040349647,-0.0023179057,0.002978221,0.047433272,-0.0061965957,-0.00021147341,-1.0489631,0.07184153,229.4085,351.64682,0.35901415,0.41575316,0.13641725,0.11550828,inf,inf,inf,inf,1,1,1,1,2,0,2,1,48,1,1,1,0,0
21835768000,21835768000,1036000,41.606704,-86.3556021,-193.0648,344.72113,-350.89053,0.00058025087,2.2485685e-05,0.0,-0.022971772,0.009656597,1.0133233,1.002201,-0.00040349647,-0.0023179057,0.002978221,-0.06108177,0.069694124,0.0042383857,-1.0495178,0.07184153,229.4085,351.1394,0.3816424,0.42102775,0.14692833,0.11977545,inf,inf,inf,inf,1,1,1,1,2,0,2,1,48,1,1,1,0,0
21836264000,21836264000,1036000,41.606704,-86.3556021,-193.0631,344.72253,-350.4015,0.00058025087,2.2485685e-05,0.0,-0.017506925,0.015801108,1.0176109,1.0003729,-0.00040349647,-0.0023179057,0.002978221,-0.050290324,-0.04544512,-0.15159887,-1.0494914,0.07184153,229.4085,350.65036,0.36257553,0.41397452,0.13779248,0.115884855,inf,inf,inf,inf,1,1,1,1,2,0,2,1,48,1,1,1,0,0
21836768000,21836768000,1036000,41.606704,-86.3556021,-193.06175,344.7242,-349.8974,0.00058025087,2.2485685e-05,0.0,-0.018138565,0.015192119,1.0191469,1.0029385,-0.00040349647,-0.0023179057,0.002978221,0.07625436,0.10388601,-0.25485182,-1.0493991,0.07184153,229.4085,350.14627,0.36600786,0.41657326,0.13986927,0.11682582,inf,inf,inf,inf,1,1,1,1,2,0,2,1,48,1,1,1,0,0
21837264000,21837264000,1036000,41.606704,-86.3556021,-193.0648,344.72775,-349.39755,0.00058025087,2.2485685e-05,0.0,-0.02411072,0.011673501,1.0162855,1.0027074,-0.00040349647,-0.0023179057,0.002978221,-0.001583654,-0.05884758,0.010342274,-1.0495715,0.07184153,229.4085,349.64642,0.36730987,0.41542462,0.14016925,0.116884135,inf,inf,inf,inf,1,1,1,1,2,0,2,1,48,1,1,1,0,0
21837768000,21837768000,1036000,41.606704,-86.3556021,-193.06383,344.719,-348.8883,0.00058025087,2.2485685e-05,0.0,-0.017696233,0.009648792,1.0147842,1.0057384,-0.00040349647,-0.0023179057,0.002978221,-0.0007842063,-0.027551768,-0.06947672,-1.049567,0.07184153,229.4085,349.13718,0.3702593,0.41789815,0.1417312,0.11766629,inf,inf,inf,inf,1,1,1,1,2,0,2,1,48,1,1,1,0,0
21838264000,21838264000,1036000,41.606704,-86.3556021,-193.06276,344.71298,-348.37927,0.00058025087,2.2485685e-05,0.0,-0.019981802,0.017114634,1.0015126,1.003028,-0.00040349647,-0.0023179057,0.002978221,0.027666222,0.06991824,0.0271424,-1.0495062,0.07184153,229.4085,348.62814,0.37211198,0.4196609,0.14252955,0.118151195,inf,inf,inf,inf,1,1,1,1,2,0,2,1,48,1,1,1,0,0
21838760000,21838760000,1036000,41.606704,-86.3556021,-193.05556,344.704,-347.8753,0.00058025087,2.2485685e-05,0.0,-0.02067784,0.017057376,0.985894,0.993991,-0.00040349647,-0.0023179057,0.002978221,0.014071371,0.10832175,0.0050430484,-1.0494567,0.07184153,229.4085,348.12418,0.3736923,0.4213144,0.14319925,0.11855275,inf,inf,inf,inf,1,1,1,1,2,0,2,1,48,1,1,1,0,0
21839264000,21839264000,1036000,41.606704,-86.3556021,-193.04974,344.69693,-347.37805,0.00058025087,2.2485685e-05,0.0,-0.029421007,0.024984058,0.99318355,0.99626625,-0.00040349647,-0.0023179057,0.002978221,-0.048060697,0.016020713,-0.069344476,-1.049521,0.07184153,229.4085,347.62692,0.35734934,0.41481793,0.13567531,0.11506306,inf,inf,inf,inf,1,1,1,1,2,0,2,1,48,1,1,1,0,0
21839768000,21839768000,1036000,41.606704,-86.3556021,-193.0519,344.69635,-346.87387,0.00058025087,2.2485685e-05,0.0,-0.03220329,0.029061226,0.9988946,1.0030534,-0.00040349647,-0.0023179057,0.002978221,0.04001763,0.006690998,-0.09810092,-1.0494862,0.07184153,229.4085,347.12274,0.37991887,0.423008,0.14623637,0.1197194,inf,inf,inf,inf,1,1,1,1,2,0,2,1,48,1,1,1,0,0
21840264000,21840264000,1036000,41.606704,-86.3556021,-193.05121,344.68875,-346.37723,0.00058025087,2.2485685e-05,0.0,-0.029243832,0.030670302,0.9941308,0.99926865,-0.00040349647,-0.0023179057,0.002978221,-0.19925511,-0.004891977,-1.3459567,-1.0494403,0.07184153,229.4085,346.6261,0.36141264,0.41573936,0.137458,0.11586095,inf,inf,inf,inf,1,1,1,1,2,0,2,1,48,1,1,1,0,0
21840760000,21840760000,1036000,41.606704,-86.3556021,-193.05693,344.68353,-345.87323,0.00058025087,2.2485685e-05,0.0,-0.03416264,0.033589985,0.9877253,0.9992763,-0.00040349647,-0.0023179057,0.002978221,-0.0966159,0.1345874,0.05243433,-1.049485,0.07184153,229.4085,346.1221,0.3848469,0.4235311,0.14872257,0.120535724,inf,inf,inf,inf,1,1,1,1,2,0,2,1,48,1,1,1,0,0
21841264000,21841264000,1036000,41.606704,-86.3556021,-193.06534,344.6852,-345.36407,0.00058025087,2.2485685e-05,0.0,-0.03345934,0.039598655,0.98181814,0.99816835,-0.00040349647,-0.0023179057,0.002978221,-0.09287826,0.04963439,0.030995283,-1.0494326,0.07184153,229.4085,345.61295,0.36548385,0.41669327,0.13923298,0.11664854,inf,inf,inf,inf,1,1,1,1,2,0,2,1,48,1,1,1,0,0
21841768000,21841768000,1036000,41.606704,-86.3556021,-193.06839,344.68604,-344.85455,0.00058025087,2.2485685e-05,0.0,-0.027949551,0.037935525,0.97455436,0.996115,-0.00040349647,-0.0023179057,0.002978221,0.05158998,-0.01701544,-0.016723823,-1.049782,0.07184153,229.4085,345.10342,0.36859295,0.4162488,0.1409923,0.11716237,inf,inf,inf,inf,1,1,1,1,2,0,2,1,48,1,1,1,0,0
21842264000,21842264000,1036000,41.606704,-86.3556021,-193.07027,344.6954,-344.3709,0.00058025087,2.2485685e-05,0.0,-0.025913352,0.039415468,0.9787569,0.9907756,-0.00040349647,-0.0023179057,0.002978221,0.034872778,0.067121424,0.009290811,-1.0498196,0.07184153,229.4085,344.61978,0.37066862,0.4181402,0.14192021,0.11774537,inf,inf,inf,inf,1,1,1,1,2,0,2,1,48,1,1,1,0,0
21842768000,21842768000,1036000,41.606704,-86.3556021,-193.05832,344.7031,-343.87457,0.00058025087,2.2485685e-05,0.0,-0.019482773,0.032847166,0.99688137,1.0020322,-0.00040349647,-0.0023179057,0.002978221,-0.096978486,0.031016594,-0.16434868,-1.049778,0.07184153,229.4085,344.12344,0.37320915,0.42053932,0.14296006,0.11842551,inf,inf,inf,inf,1,1,1,1,2,0,2,1,48,1,1,1,0,0
21843264000,21843264000,1036000,41.606704,-86.3556021,-193.04015,344.71207,-343.38568,0.00058025087,2.2485685e-05,0.0,-0.023938123,0.025317946,1.0005296,0.998796,-0.00040349647,-0.0023179057,0.002978221,0.23996598,0.098448694,0.16918212,-1.0500455,0.07184153,229.4085,343.63455,0.37600932,0.41938215,0.14452389,0.11875379,inf,inf,inf,inf,1,1,1,1,2,0,2,1,48,1,1,1,0,0
21843768000,21843768000,1036000,41.606704,-86.3556021,-193.03131,344.7167,-342.88116,0.00058025087,2.2485685e-05,0.0,-0.035083517,0.018351994,1.0045822,1.0032688,-0.00040349647,-0.0023179057,0.002978221,-0.056905087,0.013997833,-0.043049514,-1.0496954,0.07184153,229.4085,343.13004,0.37777314,0.4186709,0.14489405,0.11889851,inf,inf,inf,inf,1,1,1,1,2,0,2,1,48,1,1,1,0,0
21844264000,21844264000,1036000,41.606704,-86.3556021,-193.02286,344.71603,-342.37704,0.00058025087,2.2485685e-05,0.0,-0.043404717,0.01143278,0.99589604,1.001286,-0.00040349647,-0.0023179057,0.002978221,-0.055690542,-0.009497975,-0.03220985,-1.049647,0.07184153,229.4085,342.62592,0.35980907,0.41473046,0.13654713,0.11551277,inf,inf,inf,inf,1,1,1,1,2,0,2,1,48,1,1,1,0,0
21844760000,21844760000,1036000,41.606704,-86.3556021,-193.02518,344.7179,-341.88107,0.00058025087,2.2485685e-05,0.0,-0.053116396,0.009485921,0.99188244,0.99761623,-0.00040349647,-0.0023179057,0.002978221,-0.07795175,-0.06815112,-0.0031255817,-1.0495003,0.07184153,229.4085,342.12994,0.3830771,0.42265704,0.14781576,0.12023906,inf,inf,inf,inf,1,1,1,1,2,0,2,1,48,1,1,1,0,0
21845264000,21845264000,1036000,41.606704,-86.3556021,-193.03716,344.71722,-341.3857,0.00058025087,2.2485685e-05,0.0,-0.050614543,0.008475266,0.9967372,0.99515706,-0.00040349647,-0.0023179057,0.002978221,0.05018266,-0.093994915,-0.011027853,-1.0492803,0.07184153,229.4085,341.63458,0.36419326,0.4160429,0.13862069,0.11643301,inf,inf,inf,inf,1,1,1,1,2,0,2,1,48,1,1,1,0,0
21845768000,21845768000,1036000,41.606704,-86.3556021,-193.04137,344.7184,-340.886,0.00058025087,2.2485685e-05,0.0,-0.041238803,0.010107468,1.0053023,1.000369,-0.00040349647,-0.0023179057,0.002978221,0.003964174,0.027200509,-0.098003134,-1.0491983,0.07184153,229.4085,341.13486,0.36750683,0.41571105,0.14049663,0.117000006,inf,inf,inf,inf,1,1,1,1,2,0,2,1,48,1,1,1,0,0
21846264000,21846264000,1036000,41.606704,-86.3556021,-193.05023,344.723,-340.39532,0.00058025087,2.2485685e-05,0.0,-0.03794526,0.009527237,1.0134579,1.0042171,-0.00040349647,-0.0023179057,0.002978221,-0.37367606,-0.23658583,1.4183538,-1.0490468,0.07184153,229.4085,340.6442,0.3685457,0.41752133,0.14053214,0.1173436,inf,inf,inf,inf,1,1,1,1,2,0,2,1,48,1,1,1,0,0
21846768000,21846768000,1036000,41.606704,-86.3556021,-193.05676,344.7324,-339.88947,0.00058025087,2.2485685e-05,0.0,-0.029592995,0.009672271,1.013223,1.0056396,-0.00040349647,-0.0023179057,0.002978221,-0.009141491,-0.030081095,0.06435432,-1.0489105,0.07184153,229.4085,340.13834,0.37127593,0.4171075,0.141922,0.117745966,inf,inf,inf,inf,1,1,1,1,2,0,2,1,48,1,1,1,0,0
21847264000,21847264000,1036000,41.606704,-86.3556021,-193.06277,344.73495,-339.38715,0.00058025087,2.2485685e-05,0.0,-0.028564457,-0.0036143865,1.0034487,1.0012361,-0.00040349647,-0.0023179057,0.002978221,0.06468722,-0.037956275,0.0028963499,-1.0488564,0.07184153,229.4085,339.63602,0.3742458,0.4191139,0.14373575,0.11849134,inf,inf,inf,inf,1,1,1,1,2,0,2,1,48,1,1,1,0,0
21847760000,21847760000,1036000,41.606704,-86.3556021,-193.06766,344.7345,-338.89896,0.00058025087,2.2485685e-05,0.0,-0.021834163,-0.003905222,0.9970147,0.98872524,-0.00040349647,-0.0023179057,0.002978221,0.035988305,-0.04296159,0.055446222,-1.0488998,0.07184153,229.4085,339.14783,0.3756045,0.42083123,0.144055,0.11885684,inf,inf,inf,inf,1,1,1,1,2,0,2,1,48,1,1,1,0,0
21848264000,21848264000,1036000,41.606704,-86.3556021,-193.06801,344.7327,-338.39532,0.00058025087,2.2485685e-05,0.0,-0.015281203,-0.0021515342,1.0094883,1.0026802,-0.00040349647,-0.0023179057,0.002978221,-0.017654145,0.064868,-0.0072895247,-1.0493196,0.07184153,229.4085,338.6442,0.3588179,0.41436765,0.13624948,0.11531487,inf,inf,inf,inf,1,1,1,1,2,0,2,1,48,1,1,1,0,0
21848768000,21848768000,1036000,41.606704,-86.3556021,-193.07164,344.72968,-337.89105,0.00058025087,2.2485685e-05,0.0,-0.013037034,0.00051742466,1.0047938,0.99807745,-0.00040349647,-0.0023179057,0.002978221,0.015853234,0.017653728,-0.035382867,-1.0490345,0.07184153,229.4085,338.13992,0.38141853,0.42250618,0.14671,0.119903,inf,inf,inf,inf,1,1,1,1,2,0,2,1,48,1,1,1,0,0
21849264000,21849264000,1036000,41.606704,-86.3556021,-193.07278,344.71622,-337.39948,0.00058025087,2.2485685e-05,0.0,-0.008192856,0.0038615225,1.0093937,0.99898654,-0.00040349647,-0.0023179057,0.002978221,0.10528495,0.068198584,-0.06396236,-1.0491122,0.07184153,229.4085,337.64835,0.36242798,0.41515112,0.13765965,0.115950316,inf,inf,inf,inf,1,1,1,1,2,0,2,1,48,1,1,1,0,0
21849760000,21849760000,1036000,41.606704,-86.3556021,-193.0776,344.70676,-336.9122,0.00058025087,2.2485685e-05,0.0,-0.009819066,0.009124925,1.0179367,1.000068,-0.00040349647,-0.0023179057,0.002978221,0.010882379,0.020485085,-0.02967945,-1.0490557,0.07184153,229.4085,337.16107,0.36520073,0.41689017,0.13937281,0.11665952,inf,inf,inf,inf,1,1,1,1,2,0,2,1,48,1,1,1,0,0
21850264000,21850264000,1036000,41.606704,-86.3556021,-193.08147,344.70624,-336.4083,0.00058025087,2.2485685e-05,0.0,-0.003080996,0.021686204,1.0205508,1.0018376,-0.00040349647,-0.0023179057,0.002978221,-0.036676455,0.050327975,0.060419485,-1.049323,0.07184153,229.4085,336.65717,0.3671986,0.4189948,0.13999894,0.11719265,inf,inf,inf,inf,1,1,1,1,2,0,2,1,48,1,1,1,0,0
21850760000,21850760000,1036000,41.606704,-86.3556021,-193.08337,344.70242,-335.91562,0.00058025087,2.2485685e-05,0.0,-0.0073639774,0.025446871,1.0185204,0.9970677,-0.00040349647,-0.0023179057,0.002978221,-0.018896114,0.02994207,0.002019044,-1.0492516,0.07184153,229.4085,336.1645,0.36946598,0.41773129,0.14122316,0.11743991,inf,inf,inf,inf,1,1,1,1,2,0,2,1,48,1,1,1,0,0
