timestamp,timestamp_sample,ref_timestamp,ref_lat,ref_lon,x,y,z,delta_xy[0],delta_xy[1],delta_z,vx,vy,vz,z_deriv,delta_vxy[0],delta_vxy[1],delta_vz,ax,ay,az,heading,delta_heading,ref_alt,dist_bottom,eph,epv,evh,evv,vxy_max,vz_max,hagl_min,hagl_max,xy_valid,z_valid,v_xy_valid,v_z_valid,xy_reset_counter,z_reset_counter,vxy_reset_counter,vz_reset_counter,heading_reset_counter,heading_good_for_control,xy_global,z_global,dist_bottom_valid,dist_bottom_sensor_bitfield,dead_reckoning
173926856,173925299,43973845,36.4533956,127.4065695,26.845936,28.471138,-0.77544487,-0.00019583842,0.0002981637,-4.5001507e-05,-0.01857354,-0.0017133299,0.008397608,-0.0021055292,0.040229075,0.0045862254,0.07276097,0.092242874,-0.09805364,0.023580506,-1.3127,-0.012437099,33.46734,0.09881294,0.22676961,0.19860682,0.11726764,0.08398158,inf,inf,inf,inf,1,1,1,1,2,2,2,2,2,0,1,1,0,0,0
174026836,174024720,43973845,36.4533956,127.4065695,26.84733,28.4693,-0.7752825,-0.00019583842,0.0002981637,-4.5001507e-05,-0.011149224,-0.008095359,0.012051311,0.0018622414,0.040229075,0.0045862254,0.07276097,0.07044678,-0.020515816,0.05992962,-1.3136022,-0.012437099,33.46734,0.10065186,0.22491409,0.1972059,0.11607968,0.08347672,inf,inf,inf,inf,1,1,1,1,2,2,2,2,2,0,1,1,0,0,0
174125882,174124139,43973845,36.4533956,127.4065695,26.850067,28.468348,-0.774557,-0.00019583842,0.0002981637,-4.5001507e-05,-0.0046542543,-0.008520835,0.008608349,-0.0009145451,0.040229075,0.0045862254,0.07276097,0.01983621,-0.06400326,-0.02068233,-1.3144784,-0.012437099,33.46734,0.10032344,0.23215216,0.20234308,0.1205167,0.08541644,inf,inf,inf,inf,1,1,1,1,2,2,2,2,2,0,1,1,0,0,0
174225514,174223559,43973845,36.4533956,127.4065695,26.855558,28.467808,-0.7733763,-0.00019583842,0.0002981637,-4.5001507e-05,0.0046690376,-0.0015955911,0.005942022,-0.0021359327,0.040229075,0.0045862254,0.07276097,0.07298054,-0.00452917,-0.09658787,-1.3143915,-0.012437099,33.46734,0.10246259,0.22992156,0.2007288,0.11901208,0.08479885,inf,inf,inf,inf,1,1,1,1,2,2,2,2,2,0,1,1,0,0,0
174324591,174322980,43973845,36.4533956,127.4065695,26.860569,28.467487,-0.7738086,-0.00019583842,0.0002981637,-4.5001507e-05,0.01024749,-0.0059894393,0.0048287534,-0.0033176555,0.040229075,0.0045862254,0.07276097,0.033050116,0.0113940695,0.06317755,-1.3141875,-0.012437099,33.46734,0.0996322,0.22802137,0.19964728,0.117882736,0.08437481,inf,inf,inf,inf,1,1,1,1,2,2,2,2,2,0,1,1,0,0,0
174424002,174422400,43973845,36.4533956,127.4065695,26.867224,28.467737,-0.7740505,-0.00019583842,0.0002981637,-4.5001507e-05,0.017893694,-0.008887454,0.0073923874,-0.0008728151,0.040229075,0.0045862254,0.07276097,-0.024026612,-0.048314992,-0.027396476,-1.3121295,-0.012437099,33.46734,0.099778235,0.2261827,0.19826066,0.11678326,0.083892845,inf,inf,inf,inf,1,1,1,1,2,2,2,2,2,0,1,1,0,0,0
174523546,174521820,43973845,36.4533956,127.4065695,26.875475,28.467281,-0.7737281,-0.00019583842,0.0002981637,-4.5001507e-05,0.020389296,-0.010543055,0.004846815,-0.002895252,0.040229075,0.0045862254,0.07276097,-0.03439119,-0.01626248,-0.048109617,-1.3099324,-0.012437099,33.46734,0.103374004,0.22434247,0.19686902,0.11564934,0.08339945,inf,inf,inf,inf,1,1,1,1,2,2,2,2,2,0,1,1,0,0,0
174623864,174621241,43973845,36.4533956,127.4065695,26.883757,28.46599,-0.7730235,-0.00019583842,0.0002981637,-4.5001507e-05,0.014836029,-0.0097457515,0.00060720765,-0.0059020985,0.040229075,0.0045862254,0.07276097,-0.009689665,0.08639978,-0.029195568,-1.3076575,-0.012437099,33.46734,0.10253507,0.22251925,0.19548428,0.11451309,0.08289773,inf,inf,inf,inf,1,1,1,1,2,2,2,2,2,0,1,1,0,0,0
174722360,174720661,43973845,36.4533956,127.4065695,26.886862,28.46538,-0.77333313,-0.00019583842,0.0002981637,-4.5001507e-05,0.0056362813,-0.009603923,-0.00072003086,-0.0069144648,0.040229075,0.0045862254,0.07276097,-0.05832785,-0.05579435,0.0064980816,-1.3055995,-0.012437099,33.46734,0.101301074,0.22958134,0.2005838,0.11896342,0.08484744,inf,inf,inf,inf,1,1,1,1,2,2,2,2,2,0,1,1,0,0,0
174821625,174820081,43973845,36.4533956,127.4065695,26.890276,28.464602,-0.7752918,-0.00019583842,0.0002981637,-4.5001507e-05,-0.00044833764,-0.011109059,-0.0049507725,-0.012202276,0.040229075,0.0045862254,0.07276097,-0.024765674,0.0384387,-0.004006578,-1.3038534,-0.012437099,33.46734,0.098517,0.22769465,0.19917606,0.11784883,0.08435704,inf,inf,inf,inf,1,1,1,1,2,2,2,2,2,0,1,1,0,0,0
174921075,174919501,43973845,36.4533956,127.4065695,26.893625,28.464762,-0.7787368,-0.00019583842,0.0002981637,-4.5001507e-05,-0.006719098,-0.009103688,-0.0075757876,-0.017030219,0.040229075,0.0045862254,0.07276097,-0.09924912,-0.037001874,-0.03824313,-1.3033985,-0.012437099,33.46734,0.095606804,0.22585277,0.19779491,0.11677251,0.083876364,inf,inf,inf,inf,1,1,1,1,2,2,2,2,2,0,1,1,0,0,0
175030316,175028863,43973845,36.4533956,127.4065695,26.896168,28.465082,-0.78303915,-0.00019583842,0.0002981637,-4.5001507e-05,-0.0135999285,-0.007673054,-0.011088641,-0.022713732,0.040229075,0.0045862254,0.07276097,-0.13666429,0.008854458,0.020866912,-1.3036976,-0.012437099,33.46734,0.096956134,0.22472122,0.196976,0.1161093,0.08359112,inf,inf,inf,inf,1,1,1,1,2,2,2,2,2,0,1,1,0,0,0
175120013,175118341,43973845,36.4533956,127.4065695,26.89726,28.46507,-0.78666663,-0.00019583842,0.0002981637,-4.5001507e-05,-0.01185503,-0.00753077,-0.011506458,-0.0246341,0.040229075,0.0045862254,0.07276097,0.050554603,0.038063247,-0.021469206,-1.304212,-0.012437099,33.46734,0.09780723,0.23121253,0.20155133,0.12013477,0.08533136,inf,inf,inf,inf,1,1,1,1,2,2,2,2,2,0,1,1,0,0,0
175229346,175227704,43973845,36.4533956,127.4065695,26.897911,28.465815,-0.7908622,-0.00019583842,0.0002981637,-4.5001507e-05,-0.0040057465,-0.00894633,-0.011670488,-0.02612539,0.040229075,0.0045862254,0.07276097,0.06307416,0.03855309,0.049584843,-1.3070993,-0.012437099,33.46734,0.097816825,0.22981136,0.20057514,0.119195834,0.084953144,inf,inf,inf,inf,1,1,1,1,2,2,2,2,2,0,1,1,0,0,0
175318665,175317182,43973845,36.4533956,127.4065695,26.899332,28.466942,-0.79482895,-0.00019583842,0.0002981637,-4.5001507e-05,0.0030374439,-0.006684232,-0.0063578924,-0.022642873,0.040229075,0.0045862254,0.07276097,0.106013544,0.05973222,0.014813221,-1.3086777,-0.012437099,33.46734,0.0960353,0.22721961,0.19859584,0.1176564,0.08426151,inf,inf,inf,inf,1,1,1,1,2,2,2,2,2,0,1,1,0,0,0
175428262,175426544,43973845,36.4533956,127.4065695,26.904533,28.466932,-0.79647166,-0.00019583842,0.0002981637,-4.5001507e-05,0.011435491,-0.008009377,-0.0033426916,-0.018834947,0.040229075,0.0045862254,0.07276097,0.013415896,-0.019100253,0.056064945,-1.3084453,-0.012437099,33.46734,0.102694154,0.22610833,0.19779897,0.117017575,0.083994,inf,inf,inf,inf,1,1,1,1,2,2,2,2,2,0,1,1,0,0,0
175517634,175516022,43973845,36.4533956,127.4065695,26.908537,28.46579,-0.79723525,-0.00019583842,0.0002981637,-4.5001507e-05,0.018768867,-0.007959902,-0.007646503,-0.022056267,0.040229075,0.0045862254,0.07276097,0.04902881,0.013928059,-0.07646052,-1.3083183,-0.012437099,33.46734,0.102221966,0.22359502,0.19585976,0.11547942,0.08330056,inf,inf,inf,inf,1,1,1,1,2,2,2,2,2,0,1,1,0,0,0
175626870,175625385,43973845,36.4533956,127.4065695,26.912016,28.463654,-0.7996438,-0.00019583842,0.0002981637,-4.5001507e-05,0.021071555,-0.0052273665,-0.017146137,-0.031130573,0.040229075,0.0045862254,0.07276097,-0.014459478,0.05626481,-0.026152235,-1.3100564,-0.012437099,33.46734,0.09878546,0.22248505,0.19504698,0.11482262,0.08300918,inf,inf,inf,inf,1,1,1,1,2,2,2,2,2,0,1,1,0,0,0
175726414,175724805,43973845,36.4533956,127.4065695,26.9154,28.46203,-0.8033059,-0.00019583842,0.0002981637,-4.5001507e-05,0.021584867,-0.006893697,-0.015022858,-0.029741915,0.040229075,0.0045862254,0.07276097,0.009656404,-0.048731808,-0.05711464,-1.3113614,-0.012437099,33.46734,0.10007346,0.22958381,0.20015779,0.11930227,0.084957846,inf,inf,inf,inf,1,1,1,1,2,2,2,2,2,0,1,1,0,0,0
175825741,175824225,43973845,36.4533956,127.4065695,26.91802,28.459713,-0.80699885,-0.00019583842,0.0002981637,-4.5001507e-05,0.022629697,-0.0047827708,-0.018108169,-0.03348886,0.040229075,0.0045862254,0.07276097,0.028350048,0.080490366,-0.041268475,-1.3092752,-0.012437099,33.46734,0.10005659,0.22771683,0.19876981,0.11819499,0.08447312,inf,inf,inf,inf,1,1,1,1,2,2,2,2,2,0,1,1,0,0,0
175925313,175923645,43973845,36.4533956,127.4065695,26.92172,28.4593,-0.81156355,-0.00019583842,0.0002981637,-4.5001507e-05,0.018040223,-0.00052060914,-0.026334142,-0.042538367,0.040229075,0.0045862254,0.07276097,-0.026174348,0.020949839,-0.018615363,-1.3057085,-0.012437099,33.46734,0.0997138,0.22590761,0.19740672,0.11713588,0.08399706,inf,inf,inf,inf,1,1,1,1,2,2,2,2,2,0,1,1,0,0,0
176024659,176023066,43973845,36.4533956,127.4065695,26.925545,28.459324,-0.8171257,-0.00019583842,0.0002981637,-4.5001507e-05,0.018153802,-0.0020428002,-0.029659474,-0.047038604,0.040229075,0.0045862254,0.07276097,-0.007127182,0.02398922,-0.022907134,-1.3043319,-0.012437099,33.46734,0.0981732,0.22409226,0.19604348,0.11605965,0.083508916,inf,inf,inf,inf,1,1,1,1,2,2,2,2,2,0,1,1,0,0,0
176124049,176122486,43973845,36.4533956,127.4065695,26.92916,28.45933,-0.8232319,-0.00019583842,0.0002981637,-4.5001507e-05,0.015521835,-0.0025876253,-0.030506698,-0.049090333,0.040229075,0.0045862254,0.07276097,0.025077887,-0.015604749,0.017644472,-1.3039469,-0.012437099,33.46734,0.09987402,0.23133169,0.20120262,0.12054166,0.08545524,inf,inf,inf,inf,1,1,1,1,2,2,2,2,2,0,1,1,0,0,0
176223445,176221906,43973845,36.4533956,127.4065695,26.930351,28.460337,-0.8277938,-0.00019583842,0.0002981637,-4.5001507e-05,0.014186694,-0.009408642,-0.02983539,-0.048004806,0.040229075,0.0045862254,0.07276097,-0.046337567,-0.11996769,0.014290886,-1.3037574,-0.012437099,33.46734,0.10383505,0.22915931,0.19962327,0.1191012,0.08485031,inf,inf,inf,inf,1,1,1,1,2,2,2,2,2,0,1,1,0,0,0
176323090,176321326,43973845,36.4533956,127.4065695,26.93292,28.46148,-0.8316976,-0.00019583842,0.0002981637,-4.5001507e-05,0.014917032,-0.006376764,-0.025877248,-0.04335256,0.040229075,0.0045862254,0.07276097,0.05022346,0.013692285,-0.04868983,-1.3042228,-0.012437099,33.46734,0.103208125,0.22731283,0.19824325,0.11802211,0.08437033,inf,inf,inf,inf,1,1,1,1,2,2,2,2,2,0,1,1,0,0,0
176422167,176420747,43973845,36.4533956,127.4065695,26.934456,28.462994,-0.837917,-0.00019583842,0.0002981637,-4.5001507e-05,0.013175691,0.00027979322,-0.031549476,-0.050622,0.040229075,0.0045862254,0.07276097,0.06476159,0.17422602,-0.3054043,-1.3038172,-0.012437099,33.46734,0.097818136,0.22552203,0.19689819,0.116963126,0.08390065,inf,inf,inf,inf,1,1,1,1,2,2,2,2,2,0,1,1,0,0,0
176521856,176520167,43973845,36.4533956,127.4065695,26.935736,28.464802,-0.84453464,-0.00019583842,0.0002981637,-4.5001507e-05,0.011434224,-3.889251e-05,-0.033429127,-0.053779814,0.040229075,0.0045862254,0.07276097,-0.026766542,-0.042819846,0.046428356,-1.3028178,-0.012437099,33.46734,0.100213766,0.22367917,0.19551206,0.11584003,0.08339594,inf,inf,inf,inf,1,1,1,1,2,2,2,2,2,0,1,1,0,0,0
176621182,176619587,43973845,36.4533956,127.4065695,26.937468,28.466688,-0.85027313,-0.00019583842,0.0002981637,-4.5001507e-05,0.014778601,0.008650658,-0.029334242,-0.050049473,0.040229075,0.0045862254,0.07276097,0.16734062,0.111388296,0.061012518,-1.3038125,-0.012437099,33.46734,0.100931466,0.22189589,0.19415034,0.11473937,0.08290072,inf,inf,inf,inf,1,1,1,1,2,2,2,2,2,0,1,1,0,0,0
176720830,176719007,43973845,36.4533956,127.4065695,26.94073,28.47016,-0.85529804,-0.00019583842,0.0002981637,-4.5001507e-05,0.019586759,0.04208393,-0.029432604,-0.05015934,0.040229075,0.0045862254,0.07276097,-0.061095465,0.72640836,0.018770078,-1.3064041,-0.012437099,33.46734,0.10239583,0.22899969,0.1992549,0.11917758,0.08484723,inf,inf,inf,inf,1,1,1,1,2,2,2,2,2,0,1,1,0,0,0
176820124,176818428,43973845,36.4533956,127.4065695,26.94392,28.479197,-0.86066306,-0.00019583842,0.0002981637,-4.5001507e-05,0.016138827,0.1406048,-0.038211174,-0.058955148,0.040229075,0.0045862254,0.07276097,-0.0020387995,1.0644395,-0.04564624,-1.3093953,-0.012437099,33.46734,0.10231787,0.22710629,0.19785196,0.11803516,0.08434465,inf,inf,inf,inf,1,1,1,1,2,2,2,2,2,0,1,1,0,0,0
176919571,176917848,43973845,36.4533956,127.4065695,26.945127,28.500446,-0.8652152,-0.00019583842,0.0002981637,-4.5001507e-05,0.013501923,0.2166891,-0.024967598,-0.04529634,0.040229075,0.0045862254,0.07276097,0.2883602,-0.19895542,-0.16075954,-1.3149476,-0.012437099,33.46734,0.10326272,0.22530448,0.19650654,0.117038734,0.08387571,inf,inf,inf,inf,1,1,1,1,2,2,2,2,2,0,1,1,0,0,0
177028887,177027210,43973845,36.4533956,127.4065695,26.947119,28.523632,-0.86940855,-0.00019583842,0.0002981637,-4.5001507e-05,0.02510794,0.14352602,-0.023254206,-0.043312795,0.040229075,0.0045862254,0.07276097,-0.07935429,-1.193672,0.013665883,-1.3059846,-0.012437099,33.46734,0.10094619,0.22421287,0.19571964,0.11638005,0.08359976,inf,inf,inf,inf,1,1,1,1,2,2,2,2,2,0,1,1,0,0,0
177128415,177126630,43973845,36.4533956,127.4065695,26.94835,28.532158,-0.8727083,-0.00019583842,0.0002981637,-4.5001507e-05,0.016629923,-0.029503396,-0.014174839,-0.034071524,0.040229075,0.0045862254,0.07276097,0.20366406,-2.0962126,-0.038375143,-1.2818981,-0.012437099,33.46734,0.10136086,0.23150705,0.20089577,0.12080411,0.08553966,inf,inf,inf,inf,1,1,1,1,2,2,2,2,2,0,1,1,0,0,0
177227751,177226051,43973845,36.4533956,127.4065695,26.952215,28.52335,-0.8747558,-0.00019583842,0.0002981637,-4.5001507e-05,0.033323903,-0.20120412,-0.017913306,-0.036340483,0.040229075,0.0045862254,0.07276097,0.046549886,-1.348502,-0.0786915,-1.2647524,-0.012437099,33.46734,0.10556209,0.22923918,0.19925901,0.11920631,0.08488782,inf,inf,inf,inf,1,1,1,1,2,2,2,2,2,0,1,1,0,0,0
177327255,177325471,43973845,36.4533956,127.4065695,26.953382,28.501053,-0.87580293,-0.00019583842,0.0002981637,-4.5001507e-05,0.0469058,-0.26111475,-0.033104956,-0.048255175,0.040229075,0.0045862254,0.07276097,-0.23446138,0.071049035,-0.0021862742,-1.2662141,-0.012437099,33.46734,0.10902721,0.22735853,0.19785947,0.118190356,0.08439272,inf,inf,inf,inf,1,1,1,1,2,2,2,2,2,0,1,1,0,0,0
177426534,177424891,43973845,36.4533956,127.4065695,26.953892,28.474468,-0.8761792,-0.00019583842,0.0002981637,-4.5001507e-05,0.020794122,-0.22274241,-0.0027500377,-0.014972285,0.040229075,0.0045862254,0.07276097,-0.26152632,0.5898272,0.41786924,-1.279479,-0.012437099,33.46734,0.10949111,0.2255218,0.1964961,0.117209755,0.08390904,inf,inf,inf,inf,1,1,1,1,2,2,2,2,2,0,1,1,0,0,0
177525947,177524311,43973845,36.4533956,127.4065695,26.953186,28.453398,-0.87441397,-0.00019583842,0.0002981637,-4.5001507e-05,0.008394171,-0.14746009,0.018772747,0.008342481,0.040229075,0.0045862254,0.07276097,-0.09735709,0.81079394,0.2214166,-1.3014748,-0.012437099,33.46734,0.10236806,0.22369596,0.19542484,0.11597274,0.083469525,inf,inf,inf,inf,1,1,1,1,2,2,2,2,2,0,1,1,0,0,0
177625377,177623732,43973845,36.4533956,127.4065695,26.952421,28.441044,-0.869754,-0.00019583842,0.0002981637,-4.5001507e-05,-0.008706252,-0.071480826,0.060723808,0.051915843,0.040229075,0.0045862254,0.07276097,-0.40078035,0.46589985,0.45912698,-1.3232596,-0.012437099,33.46734,0.10594547,0.22188362,0.19404916,0.114738375,0.082957864,inf,inf,inf,inf,1,1,1,1,2,2,2,2,2,0,1,1,0,0,0
177724792,177723152,43973845,36.4533956,127.4065695,26.949846,28.419415,-0.86301434,-0.00019583842,0.0002981637,-4.5001507e-05,0.03480882,-0.6790711,-0.13872565,-0.14450975,0.040229075,0.0045862254,0.07276097,6.626636,-21.300049,-9.20293,-1.3418118,-0.012437099,33.46734,0.103307426,0.22901775,0.19918635,0.11902604,0.08490695,inf,inf,inf,inf,1,1,1,1,2,2,2,2,2,0,1,1,0,0,0
177824051,177822572,43973845,36.4533956,127.4065695,26.995325,28.243109,-0.914789,-0.00019583842,0.0002981637,-4.5001507e-05,0.39271638,-2.2522116,-0.48111013,-0.48475447,0.040229075,0.0045862254,0.07276097,-13.872102,10.158678,13.4887085,-1.384955,-0.012437099,33.46734,0.16011924,0.22714342,0.1977897,0.119248815,0.08445107,inf,inf,inf,inf,1,1,1,1,2,2,2,2,2,0,1,1,0,0,0
177923518,177921993,43973845,36.4533956,127.4065695,26.999691,28.153187,-0.93277603,-0.00019583842,0.0002981637,-4.5001507e-05,-0.13162722,0.32103497,-0.107857965,-0.11031643,0.040229075,0.0045862254,0.07276097,2.3153696,10.2703085,2.0003655,-1.3961604,-0.012437099,33.46734,0.1567244,0.22531871,0.19640478,0.12520784,0.083118975,inf,inf,inf,inf,1,1,1,1,2,2,2,2,2,0,1,1,0,0,0
178022929,178021413,43973845,36.4533956,127.4065695,27.00832,28.184063,-0.9409402,-0.00019583842,0.0002981637,-4.5001507e-05,0.06853557,0.38475323,-0.043891463,-0.049493622,0.040229075,0.0045862254,0.07276097,1.7031959,-2.0551407,-0.80347985,-1.3675841,-0.012437099,33.46734,0.16488856,0.22352315,0.19500816,0.1165417,0.080939144,inf,inf,inf,inf,1,1,1,1,2,2,2,2,2,0,1,1,0,0,0
178122400,178120834,43973845,36.4533956,127.4065695,27.027206,28.201088,-0.9536085,-0.00019583842,0.0002981637,-4.5001507e-05,0.062971815,0.44608364,-0.05334257,-0.06379713,0.040229075,0.0045862254,0.07276097,0.3988013,0.09151991,2.4113457,-1.3307273,-0.012437099,33.46734,0.17755687,0.2307686,0.2000224,0.120947175,0.081566386,inf,inf,inf,inf,1,1,1,1,2,2,2,2,2,0,1,1,0,0,0
178221852,178220254,43973845,36.4533956,127.4065695,27.034456,28.259745,-0.9575254,-0.00019583842,0.0002981637,-4.5001507e-05,0.15161668,0.45687744,-0.03613359,-0.04428128,0.040229075,0.0045862254,0.07276097,-0.40631962,-0.06910443,0.91550916,-1.3163079,-0.012437099,33.46734,0.18147373,0.22891839,0.19851398,0.12019572,0.08001882,inf,inf,inf,inf,1,1,1,1,2,2,2,2,2,0,1,1,0,0,0
178321281,178319674,43973845,36.4533956,127.4065695,27.045927,28.317415,-0.95728123,-0.00019583842,0.0002981637,-4.5001507e-05,0.134391,0.47299966,0.01917689,0.012342708,0.040229075,0.0045862254,0.07276097,-0.15833603,0.58369577,1.5075283,-1.3219837,-0.012437099,33.46734,0.18122959,0.22704771,0.19701675,0.11922315,0.0785709,inf,inf,inf,inf,1,1,1,1,2,2,2,2,2,0,1,1,0,0,0
178420746,178419094,43973845,36.4533956,127.4065695,27.053204,28.37837,-0.9511352,-0.00019583842,0.0002981637,-4.5001507e-05,0.11957643,0.5047014,0.070517614,0.064937115,0.040229075,0.0045862254,0.07276097,-0.46245766,-0.8719282,0.73296684,-1.3434368,-0.012437099,33.46734,0.17508358,0.22525136,0.19555548,0.118236884,0.07727596,inf,inf,inf,inf,1,1,1,1,2,2,2,2,2,0,1,1,0,0,0
178530016,178528456,43973845,36.4533956,127.4065695,27.061907,28.43766,-0.93948567,-0.00019583842,0.0002981637,-4.5001507e-05,0.11958405,0.39614156,0.099077776,0.09570186,0.040229075,0.0045862254,0.07276097,-0.62321275,-2.299748,-0.020004869,-1.3386995,-0.012437099,33.46734,0.16343403,0.22417942,0.19462907,0.11782029,0.07621281,inf,inf,inf,inf,1,1,1,1,2,2,2,2,2,0,1,1,0,0,0
178620534,178617934,43973845,36.4533956,127.4065695,27.072186,28.468094,-0.92742133,-0.00019583842,0.0002981637,-4.5001507e-05,0.13322897,0.15290229,0.116226874,0.115644984,0.040229075,0.0045862254,0.07276097,0.18415058,-4.372953,-0.07451271,-1.298252,-0.012437099,33.46734,0.15136969,0.2217339,0.19265413,0.116400994,0.07504892,inf,inf,inf,inf,1,1,1,1,2,2,2,2,2,0,1,1,0,0,0
178728807,178727297,43973845,36.4533956,127.4065695,27.085495,28.464857,-0.9099993,-0.00019583842,0.0002981637,-4.5001507e-05,0.13527149,-0.31263962,0.08578707,0.09123207,0.040229075,0.0045862254,0.07276097,-0.36882225,-4.249399,-0.47739288,-1.2762165,-0.012437099,33.46734,0.13394767,0.2295712,0.19778042,0.12181725,0.07615511,inf,inf,inf,inf,1,1,1,1,2,2,2,2,2,0,1,1,0,0,0
178818313,178816779,43973845,36.4533956,127.4065695,27.090162,28.419664,-0.89928615,-0.00019583842,0.0002981637,-4.5001507e-05,0.07838498,-0.7494067,-0.0076425346,0.002806243,0.040229075,0.0045862254,0.07276097,-0.8488612,-5.1344557,-2.1277359,-1.2791843,-0.012437099,33.46734,0.12323451,0.22701675,0.19574949,0.12094507,0.07520053,inf,inf,inf,inf,1,1,1,1,2,2,2,2,2,0,1,1,0,0,0
178927656,178926137,43973845,36.4533956,127.4065695,27.08972,28.301867,-0.9132696,-0.00019583842,0.0002981637,-4.5001507e-05,0.064548776,-1.4607521,-0.48466378,-0.46934223,0.040229075,0.0045862254,0.07276097,1.3976641,-9.698513,-7.1529684,-1.2933782,-0.012437099,33.46734,0.13721794,0.22598656,0.19478644,0.1221839,0.074668005,inf,inf,inf,inf,1,1,1,1,2,2,2,2,2,0,1,1,0,0,0
179017220,179015615,43973845,36.4533956,127.4065695,27.107235,28.096899,-0.99069244,-0.00019583842,0.0002981637,-4.5001507e-05,0.49455187,-3.46399,-1.6045164,-1.584058,0.040229075,0.0045862254,0.07276097,6.547446,-35.967987,-17.91818,-1.325197,-0.012437099,33.46734,0.21816653,0.2235213,0.19281416,0.12388091,0.074044965,inf,inf,inf,inf,1,1,1,1,2,2,2,2,2,0,1,1,0,0,0
179126445,179124977,43973845,36.4533956,127.4065695,27.194345,27.486876,-1.1979046,-0.00019583842,0.0002981637,-4.5001507e-05,1.0358098,-6.9977655,-1.9139135,-1.8861045,0.040229075,0.0045862254,0.07276097,-0.19214804,-4.631903,-3.8435318,-1.3380889,-0.012437099,33.46734,0.42537868,0.23173383,0.19777001,0.15069649,0.07691165,inf,inf,inf,inf,1,1,1,1,2,2,2,2,2,0,1,1,0,0,0
179225988,179224397,43973845,36.4533956,127.4065695,27.307205,26.754091,-1.3415557,-0.00019583842,0.0002981637,-4.5001507e-05,1.1958199,-7.6882677,-1.3222418,-1.2884343,0.040229075,0.0045862254,0.07276097,1.3293375,-7.4284487,4.9014707,-1.3458353,-0.012437099,33.46734,0.5690298,0.23413669,0.1974341,0.18952192,0.08117715,inf,inf,inf,inf,1,1,1,1,2,2,2,2,2,0,1,1,0,0,0
179325590,179323817,43973845,36.4533956,127.4065695,27.497217,25.923666,-1.4281394,-0.00019583842,0.0002981637,-4.5001507e-05,1.4522632,-8.4533615,-0.5113973,-0.48211056,0.040229075,0.0045862254,0.07276097,1.5564158,-8.282716,9.7398,-1.3609576,-0.012437099,33.46734,0.65561354,0.23185188,0.19592512,0.17929973,0.08074717,inf,inf,inf,inf,1,1,1,1,2,2,2,2,2,0,1,1,0,0,0
179424883,179423237,43973845,36.4533956,127.4065695,27.712067,25.03023,-1.4281142,-0.00019583842,0.0002981637,-4.5001507e-05,1.6157924,-9.206823,0.40924698,0.43796048,0.040229075,0.0045862254,0.07276097,0.43839008,-7.710198,10.63131,-1.3813698,-0.012437099,33.46734,0.65558827,0.23014627,0.1945875,0.17229503,0.08057577,inf,inf,inf,inf,1,1,1,1,2,2,2,2,2,0,1,1,0,0,0
179524450,179522657,43973845,36.4533956,127.4065695,27.93216,24.072409,-1.353145,-0.00019583842,0.0002981637,-4.5001507e-05,1.7458645,-9.901676,0.9291167,0.95673054,0.040229075,0.0045862254,0.07276097,0.586506,-6.7177286,1.608483,-1.4057173,-0.012437099,33.46734,0.5806191,0.22803344,0.19312966,0.16408007,0.08025709,inf,inf,inf,inf,1,1,1,1,2,2,2,2,2,0,1,1,0,0,0
179623796,179622076,43973845,36.4533956,127.4065695,28.142193,23.056616,-1.2674943,-0.00019583842,0.0002981637,-4.5001507e-05,1.7317864,-10.509721,0.795785,0.818818,0.040229075,0.0045862254,0.07276097,-1.5363339,-6.2077427,-2.222643,-1.4505881,-0.012437099,33.46734,0.4949684,0.22610085,0.19174942,0.16238132,0.08002091,inf,inf,inf,inf,1,1,1,1,2,2,2,2,2,0,1,1,0,0,0
179723083,179721496,43973845,36.4533956,127.4065695,28.323866,21.979855,-1.1889634,-0.00019583842,0.0002981637,-4.5001507e-05,1.5504769,-11.143655,0.8612008,0.8813333,0.040229075,0.0045862254,0.07276097,-2.0082655,-6.6250625,1.0169096,-1.4966701,-0.012437099,33.46734,0.4164375,0.23424381,0.1961876,0.17081264,0.081974484,inf,inf,inf,inf,1,1,1,1,2,2,2,2,2,0,1,1,0,0,0
179822414,179820916,43973845,36.4533956,127.4065695,28.479218,20.834526,-1.0945165,-0.00019583842,0.0002981637,-4.5001507e-05,1.4157183,-11.805765,1.1100141,1.1258498,0.040229075,0.0045862254,0.07276097,-1.5115864,-6.4437594,1.5893395,-1.5430295,-0.012437099,33.46734,0.3219906,0.23207702,0.19510026,0.16332935,0.081763394,inf,inf,inf,inf,1,1,1,1,2,2,2,2,2,0,1,1,0,0,0
179921921,179920336,43973845,36.4533956,127.4065695,28.610844,19.625889,-0.9891003,-0.00019583842,0.0002981637,-4.5001507e-05,1.1926854,-12.429128,1.095336,1.1031612,0.040229075,0.0045862254,0.07276097,-4.0204763,-5.776264,-1.0791025,-1.6062254,-0.012437099,33.46734,0.21657437,0.23016027,0.19380063,0.15740636,0.081665665,inf,inf,inf,inf,1,1,1,1,2,2,2,2,2,0,1,1,0,0,0
180021558,180019756,43973845,36.4533956,127.4065695,28.699802,18.359737,-0.8941204,-0.00019583842,0.0002981637,-4.5001507e-05,0.69652677,-12.993269,0.900026,0.90324354,0.040229075,0.0045862254,0.07276097,-5.526688,-5.56834,-1.2553265,-1.6573598,-0.012437099,33.46734,0.12159449,0.22825842,0.192519,0.15223451,0.08153009,inf,inf,inf,inf,1,1,1,1,2,2,2,2,2,0,1,1,0,0,0
180120646,180119175,43973845,36.4533956,127.4065695,28.737766,17.039585,-0.8049396,-0.00019583842,0.0002981637,-4.5001507e-05,0.27837086,-13.559653,1.0339458,1.0369623,0.040229075,0.0045862254,0.07276097,-3.0234363,-5.7079616,4.833163,-1.689591,-0.012437099,33.46734,0.03241372,0.2366058,0.19703594,0.15991819,0.08372259,inf,inf,inf,inf,1,1,1,1,2,2,2,2,2,0,1,1,0,0,0
180220172,180218595,43973845,36.4533956,127.4065695,28.7539,15.678561,-0.6955826,-0.00019583842,0.0002981637,-4.5001507e-05,-0.10040317,-14.086798,1.0645528,1.0661486,0.040229075,0.0045862254,0.07276097,-4.597766,-5.0007744,-2.9128041,-1.7205294,-0.012437099,33.46734,0.0,0.23442653,0.19571899,0.15471378,0.08359802,inf,inf,inf,inf,1,1,1,1,2,2,2,2,2,0,1,1,0,0,0
180319622,180318015,43973845,36.4533956,127.4065695,28.737339,14.27122,-0.6191276,-0.00019583842,0.0002981637,-4.5001507e-05,-0.628279,-14.504987,0.5844987,0.5829529,0.040229075,0.0045862254,0.07276097,-5.6927834,-4.8227673,-1.5358114,-1.7385521,-0.012437099,33.46734,0.013191462,0.23294419,0.1946525,0.15139285,0.08372499,inf,inf,inf,inf,1,1,1,1,2,2,2,2,2,0,1,1,0,0,0
180418865,180417434,43973845,36.4533956,127.4065695,28.668934,12.813947,-0.5564104,-0.00019583842,0.0002981637,-4.5001507e-05,-1.0627012,-14.971343,0.7615199,0.7615137,0.040229075,0.0045862254,0.07276097,-4.303261,-4.960704,3.5988843,-1.7468605,-0.012437099,33.46734,0.043771088,0.23118208,0.1935285,0.14830963,0.08362065,inf,inf,inf,inf,1,1,1,1,2,2,2,2,2,0,1,1,0,0,0
180528380,180526795,43973845,36.4533956,127.4065695,28.549011,11.1513195,-0.46412662,-0.00019583842,0.0002981637,-4.5001507e-05,-1.4710203,-15.4634285,0.7315793,0.7314697,0.040229075,0.0045862254,0.07276097,-4.4709516,-3.4513652,-6.1929,-1.7536315,-0.012437099,33.46734,0.005019903,0.2301655,0.19290836,0.14490831,0.083784014,inf,inf,inf,inf,1,1,1,1,2,2,2,2,2,0,1,1,0,0,0
180627745,180626215,43973845,36.4533956,127.4065695,28.400692,9.595781,-0.41486385,-0.00019583842,0.0002981637,-4.5001507e-05,-1.8309687,-15.829828,0.3396188,0.33745554,0.040229075,0.0045862254,0.07276097,-3.9884815,-3.1465826,-4.7381606,-1.7536144,-0.012437099,33.46734,0.047463477,0.22838496,0.1918047,0.14147443,0.08368782,inf,inf,inf,inf,1,1,1,1,2,2,2,2,2,0,1,1,0,0,0
180727363,180725635,43973845,36.4533956,127.4065695,28.208544,8.006355,-0.40390363,-0.00019583842,0.0002981637,-4.5001507e-05,-2.2306228,-16.130024,-0.14012672,-0.14058849,0.040229075,0.0045862254,0.07276097,-3.8346224,-2.6735454,-4.4130588,-1.7501514,-0.012437099,33.46734,0.09405255,0.23653607,0.19640763,0.14819938,0.08599014,inf,inf,inf,inf,1,1,1,1,2,2,2,2,2,0,1,1,0,0,0
180826523,180825054,43973845,36.4533956,127.4065695,28.001183,6.3929577,-0.4497702,-0.00019583842,0.0002981637,-4.5001507e-05,-2.5446749,-16.36468,-0.8161986,-0.81759423,0.040229075,0.0045862254,0.07276097,-2.7429044,-2.6406012,-5.5397286,-1.7453344,-0.012437099,33.46734,0.14594302,0.23484349,0.19538137,0.14559859,0.08582705,inf,inf,inf,inf,1,1,1,1,2,2,2,2,2,0,1,1,0,0,0
180926185,180924473,43973845,36.4533956,127.4065695,27.773674,4.756285,-0.5487008,-0.00019583842,0.0002981637,-4.5001507e-05,-2.7664716,-16.647558,-1.032825,-1.0374163,0.040229075,0.0045862254,0.07276097,-2.5894532,-3.277658,0.46077493,-1.7507836,-0.012437099,33.46734,0.24487361,0.23300874,0.19430044,0.14293464,0.085439615,inf,inf,inf,inf,1,1,1,1,2,2,2,2,2,0,1,1,0,0,0
181025482,181023893,43973845,36.4533956,127.4065695,27.536325,3.0976071,-0.6631495,-0.00019583842,0.0002981637,-4.5001507e-05,-2.9833941,-16.884247,-1.2303629,-1.2414246,0.040229075,0.0045862254,0.07276097,-2.8817694,-1.542625,-5.7817173,-1.7539788,-0.012437099,33.46734,0.35932228,0.23126584,0.19324598,0.13958369,0.08507643,inf,inf,inf,inf,1,1,1,1,2,2,2,2,2,0,1,1,0,0,0
181124898,181123312,43973845,36.4533956,127.4065695,27.28129,1.4272535,-0.83424556,-0.00019583842,0.0002981637,-4.5001507e-05,-3.157762,-16.985758,-1.9480455,-1.9651523,0.040229075,0.0045862254,0.07276097,-2.198398,-1.8185463,-3.251988,-1.7519794,-0.012437099,33.46734,0.5304184,0.23957917,0.19797523,0.14528953,0.08722535,inf,inf,inf,inf,1,1,1,1,2,2,2,2,2,0,1,1,0,0,0
181225471,181222731,43973845,36.4533956,127.4065695,27.027693,-0.24920388,-1.0346828,-0.00019583842,0.0002981637,-4.5001507e-05,-3.3277495,-17.231537,-1.9008664,-1.9250197,0.040229075,0.0045862254,0.07276097,-2.6736312,-1.9121475,-1.2550912,-1.7553488,-0.012437099,33.46734,0.7308556,0.22784309,0.1911267,0.13402279,0.08402104,inf,inf,inf,inf,1,1,1,1,2,2,2,2,2,0,1,1,0,0,0
181323789,181322151,43973845,36.4533956,127.4065695,26.734211,-1.9471343,-1.2558872,-0.00019583842,0.0002981637,-4.5001507e-05,-3.4996815,-17.391146,-2.180378,-2.2189286,0.040229075,0.0045862254,0.07276097,-1.1204178,-2.2258232,-0.7326977,-1.7579784,-0.012437099,33.46734,0.95206,0.2357147,0.19578631,0.13901477,0.086197525,inf,inf,inf,inf,1,1,1,1,2,2,2,2,2,0,1,1,0,0,0
181423332,181421570,43973845,36.4533956,127.4065695,26.423225,-3.6545238,-1.5017457,-0.00019583842,0.0002981637,-4.5001507e-05,-3.5496726,-17.515707,-2.4478126,-2.4994247,0.040229075,0.0045862254,0.07276097,-0.89626426,-1.2499216,-4.039516,-1.7650979,-0.012437099,33.46734,1.1979185,0.23396672,0.19474913,0.13624007,0.08571883,inf,inf,inf,inf,1,1,1,1,2,2,2,2,2,0,1,1,0,0,0
181522476,181520990,43973845,36.4533956,127.4065695,26.103672,-5.3665495,-1.7853861,-0.00019583842,0.0002981637,-4.5001507e-05,-3.6118734,-17.55279,-2.8139522,-2.8780653,0.040229075,0.0045862254,0.07276097,-0.94835305,-0.8085426,-3.3444335,-1.7791343,-0.012437099,33.46734,1.4815589,0.23242731,0.19376573,0.13355951,0.08511842,inf,inf,inf,inf,1,1,1,1,2,2,2,2,2,0,1,1,0,0,0
181622003,181620409,43973845,36.4533956,127.4065695,25.779194,-7.082287,-2.103197,-0.00019583842,0.0002981637,-4.5001507e-05,-3.6517541,-17.601173,-3.0713496,-3.1499152,0.040229075,0.0045862254,0.07276097,-0.7959709,-1.0995325,-1.66634,-1.7999213,-0.012437099,33.46734,1.7993699,0.23085892,0.19276303,0.13111521,0.08439364,inf,inf,inf,inf,1,1,1,1,2,2,2,2,2,0,1,1,0,0,0
181721538,181719828,43973845,36.4533956,127.4065695,25.447983,-8.810486,-2.4343066,-0.00019583842,0.0002981637,-4.5001507e-05,-3.7203033,-17.738197,-3.0009766,-3.096741,0.040229075,0.0045862254,0.07276097,-1.6753238,-1.6004237,1.7641051,-1.8227102,-0.012437099,33.46734,2.1304793,0.23874962,0.19751568,0.13633847,0.08617454,inf,inf,inf,inf,1,1,1,1,2,2,2,2,2,0,1,1,0,0,0
181820760,181819247,43973845,36.4533956,127.4065695,25.1148,-10.556081,-2.7583888,-0.00019583842,0.0002981637,-4.5001507e-05,-3.7735038,-17.90383,-2.8492773,-2.9665475,0.040229075,0.0045862254,0.07276097,-0.84877896,-1.6227665,1.5505913,-1.8282319,-0.012437099,33.46734,2.4545615,0.23707071,0.19649467,0.13309284,0.08567848,inf,inf,inf,inf,1,1,1,1,2,2,2,2,2,0,1,1,0,0,0
181920595,181918666,43973845,36.4533956,127.4065695,24.770277,-12.321753,-3.0659897,-0.00019583842,0.0002981637,-4.5001507e-05,-3.7513852,-18.068464,-2.7696567,-2.9026637,0.040229075,0.0045862254,0.07276097,0.837133,-1.178985,-1.1131656,-1.6625125,0.14188026,33.46734,2.7621624,0.23540229,0.19545726,0.1280859,0.0848928,inf,inf,inf,inf,1,1,1,1,2,2,2,2,3,0,1,1,0,0,0
182029591,182028026,43973845,36.4533956,127.4065695,24.394573,-14.281713,-3.4071348,-0.00019583842,0.0002981637,-4.5001507e-05,-3.5158637,-18.164497,-2.9515595,-3.0972252,0.040229075,0.0045862254,0.07276097,3.7161515,-0.04135184,-3.5264513,-1.6073382,0.14188026,33.46734,3.1033075,0.23512642,0.19519673,0.12492962,0.084466204,inf,inf,inf,inf,1,1,1,1,2,2,2,2,3,0,1,1,0,0,0
182120258,182117504,43973845,36.4533956,127.4065695,24.110115,-15.891749,-3.7105296,-0.00019583842,0.0002981637,-4.5001507e-05,-3.15045,-18.17602,-3.326964,-3.4766395,0.040229075,0.0045862254,0.07276097,3.0829828,-1.3577367,-0.48031095,-1.5657578,0.14188026,33.46734,3.4067023,0.24203393,0.19948721,0.12773126,0.08587528,inf,inf,inf,inf,1,1,1,1,2,2,2,2,3,0,1,1,0,0,0
182230346,182226864,43973845,36.4533956,127.4065695,23.7906,-17.860264,-4.0945735,-0.00019583842,0.0002981637,-4.5001507e-05,-2.670528,-18.3176,-3.3308997,-3.483473,0.040229075,0.0045862254,0.07276097,6.749449,-1.0683129,-1.3505108,-1.5117627,0.14188026,33.46734,3.7907462,0.23206884,0.1931207,0.12062124,0.082930975,inf,inf,inf,inf,1,1,1,1,2,2,2,2,3,0,1,1,0,0,0
182318445,182316342,43973845,36.4533956,127.4065695,23.579798,-19.484604,-4.4238095,-0.00019583842,0.0002981637,-4.5001507e-05,-2.0249352,-18.33529,-3.5319214,-3.6924934,0.040229075,0.0045862254,0.07276097,7.8708057,0.7487266,-4.5247617,-1.4670151,0.14188026,33.46734,4.1199822,0.23847598,0.19732052,0.12829201,0.08441644,inf,inf,inf,inf,1,1,1,1,2,2,2,2,3,0,1,1,0,0,0
182427239,182425702,43973845,36.4533956,127.4065695,23.397438,-21.475792,-4.8664465,-0.00019583842,0.0002981637,-4.5001507e-05,-1.1181601,-18.209154,-4.1311436,-4.2954044,0.040229075,0.0045862254,0.07276097,7.289116,1.5553313,-5.235252,-1.4273173,0.14188026,33.46734,4.562619,0.23759471,0.19685519,0.139956,0.084152505,inf,inf,inf,inf,1,1,1,1,2,2,2,2,3,0,1,1,0,0,0
182526836,182525122,43973845,36.4533956,127.4065695,23.308517,-23.285141,-5.3079157,-0.00019583842,0.0002981637,-4.5001507e-05,-0.4775957,-18.165733,-4.3561716,-4.5192046,0.040229075,0.0045862254,0.07276097,7.3272314,1.6094637,-3.839443,-1.410832,0.14188026,33.46734,5.0040884,0.23602124,0.19584468,0.15391959,0.08397473,inf,inf,inf,inf,1,1,1,1,2,2,2,2,3,0,1,1,0,0,0
182626259,182624540,43973845,36.4533956,127.4065695,23.295156,-25.09456,-5.776804,-0.00019583842,0.0002981637,-4.5001507e-05,0.2541635,-18.035952,-4.747621,-4.9082494,0.040229075,0.0045862254,0.07276097,7.1469464,1.8643739,-3.8878353,-1.406331,0.14188026,33.46734,5.4729767,0.23450679,0.194868,0.16035293,0.0838348,inf,inf,inf,inf,1,1,1,1,2,2,2,2,3,0,1,1,0,0,0
182725898,182723959,43973845,36.4533956,127.4065695,23.354801,-26.905172,-6.273707,-0.00019583842,0.0002981637,-4.5001507e-05,0.7758131,-18.017014,-4.9068103,-5.0644784,0.040229075,0.0045862254,0.07276097,5.158181,0.6538392,-1.6613823,-1.4118841,0.14188026,33.46734,5.9698796,0.24179932,0.1996575,0.1850637,0.08619243,inf,inf,inf,inf,1,1,1,1,2,2,2,2,3,0,1,1,0,0,0
182826175,182823378,43973845,36.4533956,127.4065695,23.478405,-28.724092,-6.7893877,-0.00019583842,0.0002981637,-4.5001507e-05,1.3468037,-17.960232,-5.2149076,-5.3683295,0.040229075,0.0045862254,0.07276097,4.932643,0.6726518,-2.953338,-1.4172764,0.14188026,33.46734,6.4855604,0.24011433,0.19864649,0.18226485,0.086099274,inf,inf,inf,inf,1,1,1,1,2,2,2,2,3,0,1,1,0,0,0
182924574,182922797,43973845,36.4533956,127.4065695,23.64185,-30.550697,-7.3181186,-0.00019583842,0.0002981637,-4.5001507e-05,1.5840268,-18.102224,-5.0940228,-5.241427,0.040229075,0.0045862254,0.07276097,1.0909449,-1.1849023,2.1013272,-1.4363837,0.14188026,33.46734,7.0142913,0.23843959,0.19763534,0.17922094,0.08609599,inf,inf,inf,inf,1,1,1,1,2,2,2,2,3,1,1,1,0,0,0
183024922,183022215,43973845,36.4533956,127.4065695,23.82898,-32.39698,-7.830982,-0.00019583842,0.0002981637,-4.5001507e-05,1.7552143,-18.267975,-4.893373,-5.0339932,0.040229075,0.0045862254,0.07276097,-1.4167428,-2.2971756,6.101624,-1.4424249,0.14188026,33.46734,7.527155,0.23684543,0.19695547,0.1678471,0.08570356,inf,inf,inf,inf,1,1,1,1,2,2,2,2,3,1,1,1,0,0,0
183123356,183121634,43973845,36.4533956,127.4065695,24.026974,-34.26106,-8.310842,-0.00019583842,0.0002981637,-4.5001507e-05,1.8557155,-18.423958,-4.6819634,-4.813112,0.040229075,0.0045862254,0.07276097,1.0133241,-1.1337391,1.9470317,-1.4199116,0.14188026,33.46734,8.007014,0.24457897,0.20186444,0.17367823,0.08759296,inf,inf,inf,inf,1,1,1,1,2,2,2,2,3,1,1,1,0,0,0
183222548,183221053,43973845,36.4533956,127.4065695,24.234495,-36.115997,-8.792891,-0.00019583842,0.0002981637,-4.5001507e-05,2.0352094,-18.448618,-4.8089542,-4.9317794,0.040229075,0.0045862254,0.07276097,0.01089002,-1.8503798,5.275041,-1.3831375,0.14188026,33.46734,8.489063,0.24256422,0.20072602,0.16195734,0.08691202,inf,inf,inf,inf,1,1,1,1,2,2,2,2,3,1,1,1,0,0,0
183322026,183320471,43973845,36.4533956,127.4065695,24.452005,-37.981094,-9.265487,-0.00019583842,0.0002981637,-4.5001507e-05,2.3200629,-18.506866,-4.709801,-4.8245444,0.040229075,0.0045862254,0.07276097,4.4819818,1.0572276,-1.721597,-1.3284851,0.14188026,33.46734,8.961659,0.24086194,0.1997234,0.15548176,0.08644958,inf,inf,inf,inf,1,1,1,1,2,2,2,2,3,1,1,1,0,0,0
183421551,183419890,43973845,36.4533956,127.4065695,24.709131,-39.8387,-9.746098,-0.00019583842,0.0002981637,-4.5001507e-05,2.83661,-18.38677,-4.8853354,-4.993297,0.040229075,0.0045862254,0.07276097,6.3559914,3.2175996,-5.0601516,-1.2853799,0.14188026,33.46734,9.44227,0.23916548,0.1986879,0.1512764,0.0860871,inf,inf,inf,inf,1,1,1,1,2,2,2,2,3,1,1,1,0,0,0
183520881,183519308,43973845,36.4533956,127.4065695,25.02129,-41.676884,-10.258376,-0.00019583842,0.0002981637,-4.5001507e-05,3.4502742,-18.10854,-5.2923717,-5.3928585,0.040229075,0.0045862254,0.07276097,4.9342484,1.7174426,-0.9352452,-1.2699409,0.14188026,33.46734,9.954549,0.23752177,0.19768085,0.15093026,0.08598946,inf,inf,inf,inf,1,1,1,1,2,2,2,2,3,1,1,1,0,0,0
183621482,183618727,43973845,36.4533956,127.4065695,25.384106,-43.49764,-10.787,-0.00019583842,0.0002981637,-4.5001507e-05,3.9470623,-17.929228,-5.359855,-5.4510236,0.040229075,0.0045862254,0.07276097,4.284665,2.2600076,-0.51760584,-1.2742642,0.14188026,33.46734,10.483172,0.23588869,0.19667849,0.1517406,0.086018085,inf,inf,inf,inf,1,1,1,1,2,2,2,2,3,1,1,1,0,0,0
183720038,183718146,43973845,36.4533956,127.4065695,25.798117,-45.28937,-11.33654,-0.00019583842,0.0002981637,-4.5001507e-05,4.4014378,-17.574013,-5.7458215,-5.829483,0.040229075,0.0045862254,0.07276097,3.0840027,3.6966422,-5.06704,-1.3105816,0.14188026,33.46734,11.032713,0.24341226,0.20163079,0.16256055,0.08847309,inf,inf,inf,inf,1,1,1,1,2,2,2,2,3,1,1,1,0,0,0
183829413,183827506,43973845,36.4533956,127.4065695,26.293806,-47.236805,-11.962858,-0.00019583842,0.0002981637,-4.5001507e-05,4.440433,-17.617064,-5.3213835,-5.3986845,0.040229075,0.0045862254,0.07276097,-1.7312436,-1.7805784,8.2201185,-1.372484,0.14188026,33.46734,11.659031,0.24251646,0.20123325,0.16190541,0.08861425,inf,inf,inf,inf,1,1,1,1,2,2,2,2,3,1,1,1,0,0,0
183918531,183916983,43973845,36.4533956,127.4065695,26.69103,-48.839092,-12.40786,-0.00019583842,0.0002981637,-4.5001507e-05,4.335632,-17.768188,-4.652043,-4.7241445,0.040229075,0.0045862254,0.07276097,-0.51898926,-0.58449847,4.849211,-1.387808,0.14188026,33.46734,12.1040325,0.23999411,0.19966488,0.151486,0.087547444,inf,inf,inf,inf,1,1,1,1,2,2,2,2,3,1,1,1,0,0,0
184027904,184026343,43973845,36.4533956,127.4065695,27.163176,-50.80387,-12.888408,-0.00019583842,0.0002981637,-4.5001507e-05,4.3137293,-17.761726,-4.2927213,-4.358148,0.040229075,0.0045862254,0.07276097,1.2577428,2.3709426,-1.7091529,-1.3759408,0.14188026,33.46734,12.58458,0.2391246,0.19925028,0.14146094,0.08673735,inf,inf,inf,inf,1,1,1,1,2,2,2,2,3,1,1,1,0,0,0
184127372,184125762,43973845,36.4533956,127.4065695,27.5895,-52.578037,-13.316617,-0.00019583842,0.0002981637,-4.5001507e-05,4.3476367,-17.624119,-4.3476276,-4.406532,0.040229075,0.0045862254,0.07276097,0.28971803,1.1802279,0.68733716,-1.3617773,0.14188026,33.46734,13.01279,0.2467116,0.2043249,0.1440657,0.08850268,inf,inf,inf,inf,1,1,1,1,2,2,2,2,3,1,1,1,0,0,0
184226638,184225180,43973845,36.4533956,127.4065695,28.00951,-54.327072,-13.732727,-0.00019583842,0.0002981637,-4.5001507e-05,4.406709,-17.572304,-4.174137,-4.2203217,0.040229075,0.0045862254,0.07276097,0.3037739,0.4321825,1.3406179,-1.3492947,0.14188026,33.46734,13.4289,0.2447328,0.20317383,0.1394916,0.087740175,inf,inf,inf,inf,1,1,1,1,2,2,2,2,3,1,1,1,0,0,0
184326166,184324599,43973845,36.4533956,127.4065695,28.4262,-56.061066,-14.137091,-0.00019583842,0.0002981637,-4.5001507e-05,4.4883766,-17.538427,-3.9420877,-3.9867222,0.040229075,0.0045862254,0.07276097,0.496061,0.7300632,0.8965889,-1.3378323,0.14188026,33.46734,13.833263,0.2430348,0.20216791,0.13546155,0.08711966,inf,inf,inf,inf,1,1,1,1,2,2,2,2,3,1,1,1,0,0,0
184426812,184424024,43973845,36.4533956,127.4065695,28.840332,-57.784756,-14.540082,-0.00019583842,0.0002981637,-4.5001507e-05,4.5469375,-17.435797,-3.9825652,-4.0344543,0.040229075,0.0045862254,0.07276097,0.659766,0.5204387,-0.89178145,-1.3286642,0.14188026,33.46734,14.236255,0.24138436,0.20115773,0.13191922,0.086533345,inf,inf,inf,inf,1,1,1,1,2,2,2,2,3,1,1,1,0,0,0
184525181,184523438,43973845,36.4533956,127.4065695,29.255342,-59.499077,-14.95315,-0.00019583842,0.0002981637,-4.5001507e-05,4.569917,-17.337566,-4.102574,-4.1634336,0.040229075,0.0045862254,0.07276097,-0.12798105,2.0855494,-3.363825,-1.3227274,0.14188026,33.46734,14.6493225,0.23977213,0.20014042,0.12940176,0.08594571,inf,inf,inf,inf,1,1,1,1,2,2,2,2,3,1,1,1,0,0,0
184624577,184622855,43973845,36.4533956,127.4065695,29.67472,-61.20448,-15.385487,-0.00019583842,0.0002981637,-4.5001507e-05,4.5899262,-17.239912,-4.251315,-4.3213267,0.040229075,0.0045862254,0.07276097,0.2523142,0.94077885,-1.8709837,-1.3236818,0.14188026,33.46734,15.081659,0.23824614,0.19913866,0.12717518,0.08534653,inf,inf,inf,inf,1,1,1,1,2,2,2,2,3,1,1,1,0,0,0
184723976,184722272,43973845,36.4533956,127.4065695,30.10322,-62.903465,-15.822708,-0.00019583842,0.0002981637,-4.5001507e-05,4.592573,-17.189947,-4.2334704,-4.312159,0.040229075,0.0045862254,0.07276097,1.2516425,1.1895146,-1.1356856,-1.3270547,0.14188026,33.46734,15.518881,0.24541084,0.2041874,0.13209555,0.08723261,inf,inf,inf,inf,1,1,1,1,2,2,2,2,3,1,1,1,0,0,0
184823290,184821691,43973845,36.4533956,127.4065695,30.547392,-64.60127,-16.260172,-0.00019583842,0.0002981637,-4.5001507e-05,4.617796,-17.120378,-4.2643247,-4.3476863,0.040229075,0.0045862254,0.07276097,1.5429078,0.94005734,-0.14399761,-1.3327465,0.14188026,33.46734,15.956345,0.24378507,0.20316616,0.12953012,0.08662272,inf,inf,inf,inf,1,1,1,1,2,2,2,2,3,1,1,1,0,0,0
184923766,184921109,43973845,36.4533956,127.4065695,30.995373,-66.29314,-16.711237,-0.00019583842,0.0002981637,-4.5001507e-05,4.619908,-17.01596,-4.5105743,-4.597413,0.040229075,0.0045862254,0.07276097,0.53240865,0.049775463,0.4699169,-1.3428603,0.14188026,33.46734,16.40741,0.2421849,0.20212764,0.12746085,0.086031355,inf,inf,inf,inf,1,1,1,1,2,2,2,2,3,1,1,1,0,0,0
185022278,185020527,43973845,36.4533956,127.4065695,31.438522,-67.9865,-17.172585,-0.00019583842,0.0002981637,-4.5001507e-05,4.450683,-17.02785,-4.553438,-4.6415873,0.040229075,0.0045862254,0.07276097,-1.0542153,-0.100720465,0.06661806,-1.3483192,0.14188026,33.46734,16.868757,0.24065103,0.20111378,0.12627046,0.0854595,inf,inf,inf,inf,1,1,1,1,2,2,2,2,3,1,1,1,0,0,0
185121846,185119946,43973845,36.4533956,127.4065695,31.866474,-69.68374,-17.640482,-0.00019583842,0.0002981637,-4.5001507e-05,4.304525,-17.004827,-4.7744937,-4.861114,0.040229075,0.0045862254,0.07276097,0.3276781,1.3149588,-4.396987,-1.3340566,0.14188026,33.46734,17.336655,0.2478548,0.20621088,0.1307271,0.0872076,inf,inf,inf,inf,1,1,1,1,2,2,2,2,3,1,1,1,0,0,0
185220985,185219364,43973845,36.4533956,127.4065695,32.295586,-71.36445,-18.140179,-0.00019583842,0.0002981637,-4.5001507e-05,4.2580028,-16.893862,-5.1913786,-5.2729664,0.040229075,0.0045862254,0.07276097,0.44373253,1.3735418,-3.2168887,-1.3196433,0.14188026,33.46734,17.836351,0.24603033,0.20501766,0.1293433,0.08646771,inf,inf,inf,inf,1,1,1,1,2,2,2,2,3,1,1,1,0,0,0
185320877,185318784,43973845,36.4533956,127.4065695,32.722275,-73.04289,-18.664454,-0.00019583842,0.0002981637,-4.5001507e-05,4.199418,-16.847359,-5.2779217,-5.353828,0.040229075,0.0045862254,0.07276097,-1.3988154,1.2087821,-0.041621223,-1.3127654,0.14188026,33.46734,18.360626,0.24441469,0.20393255,0.12927341,0.08589355,inf,inf,inf,inf,1,1,1,1,2,2,2,2,3,1,1,1,0,0,0
185420433,185418200,43973845,36.4533956,127.4065695,33.141376,-74.722084,-19.18674,-0.00019583842,0.0002981637,-4.5001507e-05,4.1222496,-16.835691,-5.1520724,-5.2248588,0.040229075,0.0045862254,0.07276097,-1.5408628,0.31558803,0.0491412,-1.3040609,0.14188026,33.46734,18.882914,0.24284945,0.20286575,0.12803389,0.08532517,inf,inf,inf,inf,1,1,1,1,2,2,2,2,3,1,1,1,0,0,0
185529175,185527560,43973845,36.4533956,127.4065695,33.59404,-76.568184,-19.743177,-0.00019583842,0.0002981637,-4.5001507e-05,4.121697,-16.766518,-5.0684457,-5.1372447,0.040229075,0.0045862254,0.07276097,0.57162553,1.3120693,-0.41891673,-1.2927319,0.14188026,33.46734,19.43935,0.24199794,0.20236596,0.12668152,0.08495432,inf,inf,inf,inf,1,1,1,1,2,2,2,2,3,1,1,1,0,0,0
185620967,185617047,43973845,36.4533956,127.4065695,33.962227,-78.07526,-20.182907,-0.00019583842,0.0002981637,-4.5001507e-05,4.1445813,-16.792936,-4.723559,-4.787765,0.040229075,0.0045862254,0.07276097,-0.2989694,-0.8562134,5.521057,-1.2870651,0.14188026,33.46734,19.87908,0.23979044,0.20104413,0.12440117,0.084287085,inf,inf,inf,inf,1,1,1,1,2,2,2,2,3,1,1,1,0,0,0
185728437,185726396,43973845,36.4533956,127.4065695,34.41612,-79.91924,-20.666327,-0.00019583842,0.0002981637,-4.5001507e-05,4.2256823,-16.80204,-4.308505,-4.363861,0.040229075,0.0045862254,0.07276097,2.2645993,1.3369713,0.68686956,-1.2845068,0.14188026,33.46734,20.3625,0.2474206,0.20632175,0.128393,0.08630731,inf,inf,inf,inf,1,1,1,1,2,2,2,2,3,1,1,1,0,0,0
185828527,185825815,43973845,36.4533956,127.4065695,34.837925,-81.582855,-21.09537,-0.00019583842,0.0002981637,-4.5001507e-05,4.2807837,-16.638742,-4.4428496,-4.487525,0.040229075,0.0045862254,0.07276097,-0.09055276,0.6987046,0.5892093,-1.2958741,0.14188026,33.46734,20.791542,0.24578933,0.20520899,0.12559013,0.08581613,inf,inf,inf,inf,1,1,1,1,2,2,2,2,3,1,1,1,0,0,0
185926897,185925232,43973845,36.4533956,127.4065695,35.263653,-83.23613,-21.519247,-0.00019583842,0.0002981637,-4.5001507e-05,4.293838,-16.634163,-4.206528,-4.2363153,0.040229075,0.0045862254,0.07276097,1.1022588,-0.57453185,4.7744627,-1.3208282,0.14188026,33.46734,21.21542,0.24417387,0.20409103,0.124860846,0.085338295,inf,inf,inf,inf,1,1,1,1,2,2,2,2,3,1,1,1,0,0,0
186026237,186024650,43973845,36.4533956,127.4065695,35.693954,-84.894966,-21.903086,-0.00019583842,0.0002981637,-4.5001507e-05,4.2784414,-16.72595,-3.767028,-3.7830238,0.040229075,0.0045862254,0.07276097,-1.189126,-0.5762859,3.836259,-1.3467369,0.14188026,33.46734,21.599258,0.24260621,0.20332663,0.12276993,0.08488804,inf,inf,inf,inf,1,1,1,1,2,2,2,2,3,1,1,1,0,0,0
186126052,186124069,43973845,36.4533956,127.4065695,36.12128,-86.5621,-22.253677,-0.00019583842,0.0002981637,-4.5001507e-05,4.1830306,-16.799982,-3.554298,-3.5599701,0.040229075,0.0045862254,0.07276097,-1.7681712,-0.48814932,-0.6105305,-1.3646876,0.14188026,33.46734,21.94985,0.24965277,0.20844282,0.12615883,0.08674989,inf,inf,inf,inf,1,1,1,1,2,2,2,2,3,1,1,1,0,0,0
186225061,186223494,43973845,36.4533956,127.4065695,36.533566,-88.223114,-22.60216,-0.00019583842,0.0002981637,-4.5001507e-05,4.0061336,-16.764343,-3.7576606,-3.7509255,0.040229075,0.0045862254,0.07276097,-1.3541602,0.48964408,-1.8332189,-1.3717749,0.14188026,33.46734,22.298332,0.24784184,0.2071908,0.124518186,0.08613415,inf,inf,inf,inf,1,1,1,1,2,2,2,2,3,1,1,1,0,0,0
186325484,186322904,43973845,36.4533956,127.4065695,36.93142,-89.88219,-22.95747,-0.00019583842,0.0002981637,-4.5001507e-05,3.8941083,-16.809063,-3.7136264,-3.6883006,0.040229075,0.0045862254,0.07276097,0.089460135,-0.6804195,2.228245,-1.3703506,0.14188026,33.46734,22.653643,0.24621257,0.20604664,0.12505455,0.08560034,inf,inf,inf,inf,1,1,1,1,2,2,2,2,3,1,1,1,0,0,0
186424031,186422326,43973845,36.4533956,127.4065695,37.325794,-91.55302,-23.297869,-0.00019583842,0.0002981637,-4.5001507e-05,3.8250299,-16.892984,-3.5710855,-3.5301352,0.040229075,0.0045862254,0.07276097,0.16351092,-0.68641007,0.7735729,-1.3688809,0.14188026,33.46734,22.994041,0.24458008,0.20489702,0.12432347,0.085061185,inf,inf,inf,inf,1,1,1,1,2,2,2,2,3,1,1,1,0,0,0
186523311,186521741,43973845,36.4533956,127.4065695,37.7134,-93.23007,-23.641052,-0.00019583842,0.0002981637,-4.5001507e-05,3.7408483,-16.896053,-3.7441807,-3.6908345,0.040229075,0.0045862254,0.07276097,-0.7300506,-0.127308,-0.811792,-1.3691185,0.14188026,33.46734,23.337225,0.24301778,0.2037613,0.12316112,0.084544085,inf,inf,inf,inf,1,1,1,1,2,2,2,2,3,1,1,1,0,0,0
186622630,186621159,43973845,36.4533956,127.4065695,38.08981,-94.90991,-24.002525,-0.00019583842,0.0002981637,-4.5001507e-05,3.6866493,-16.922314,-3.8172662,-3.7549915,0.040229075,0.0045862254,0.07276097,-0.9682582,-0.47746474,0.18291065,-1.3728422,0.14188026,33.46734,23.698698,0.24144848,0.20261201,0.12303448,0.084032856,inf,inf,inf,inf,1,1,1,1,2,2,2,2,3,1,1,1,0,0,0
186722269,186720576,43973845,36.4533956,127.4065695,38.452198,-96.5995,-24.369057,-0.00019583842,0.0002981637,-4.5001507e-05,3.6296635,-16.969408,-3.8379335,-3.770748,0.040229075,0.0045862254,0.07276097,-0.42944807,-0.64922094,-0.029808385,-1.3812125,0.14188026,33.46734,24.06523,0.24834123,0.2076627,0.12870356,0.08591105,inf,inf,inf,inf,1,1,1,1,2,2,2,2,3,1,1,1,0,0,0
186821868,186819994,43973845,36.4533956,127.4065695,38.806343,-98.29142,-24.739916,-0.00019583842,0.0002981637,-4.5001507e-05,3.533162,-17.064705,-3.743507,-3.6761746,0.040229075,0.0045862254,0.07276097,-0.8588654,-1.413878,2.3363588,-1.3936611,0.14188026,33.46734,24.436089,0.24671617,0.20649514,0.12777467,0.08541435,inf,inf,inf,inf,1,1,1,1,2,2,2,2,3,1,1,1,0,0,0
186920886,186919412,43973845,36.4533956,127.4065695,39.148422,-99.99446,-25.105549,-0.00019583842,0.0002981637,-4.5001507e-05,3.3866699,-17.140917,-3.8120553,-3.747631,0.040229075,0.0045862254,0.07276097,-1.8999841,-0.77092755,-1.3169898,-1.4092079,0.14188026,33.46734,24.801722,0.24509981,0.20531602,0.12664177,0.084905244,inf,inf,inf,inf,1,1,1,1,2,2,2,2,3,1,1,1,0,0,0
187021605,187018830,43973845,36.4533956,127.4065695,39.47195,-101.70697,-25.472427,-0.00019583842,0.0002981637,-4.5001507e-05,3.1997128,-17.30586,-3.6444566,-3.5818033,0.040229075,0.0045862254,0.07276097,-1.5793784,-1.9850643,2.952066,-1.425766,0.14188026,33.46734,25.1686,0.24348687,0.20412745,0.12631066,0.08439369,inf,inf,inf,inf,1,1,1,1,2,2,2,2,3,1,1,1,0,0,0
187129775,187128190,43973845,36.4533956,127.4065695,39.80814,-103.609795,-25.847576,-0.00019583842,0.0002981637,-4.5001507e-05,3.0076022,-17.501043,-3.4050715,-3.3430324,0.040229075,0.0045862254,0.07276097,-2.04188,-1.4240805,0.47510055,-1.4383439,0.14188026,33.46734,25.543749,0.25130364,0.2098046,0.13284598,0.08647778,inf,inf,inf,inf,1,1,1,1,2,2,2,2,3,1,1,1,0,0,0
187219127,187217665,43973845,36.4533956,127.4065695,40.06839,-105.17051,-26.154371,-0.00019583842,0.0002981637,-4.5001507e-05,2.809719,-17.59426,-3.4752147,-3.4180083,0.040229075,0.0045862254,0.07276097,-2.0028706,-1.3836256,0.38430664,-1.4411913,0.14188026,33.46734,25.850544,0.24875356,0.20790541,0.13100818,0.085731275,inf,inf,inf,inf,1,1,1,1,2,2,2,2,3,1,1,1,0,0,0
187328622,187327025,43973845,36.4533956,127.4065695,40.369385,-107.08809,-26.533909,-0.00019583842,0.0002981637,-4.5001507e-05,2.6069593,-17.718723,-3.5383573,-3.4859123,0.040229075,0.0045862254,0.07276097,-2.3354223,-1.0935091,-1.2722772,-1.4398487,0.14188026,33.46734,26.230082,0.24779877,0.20728163,0.13181596,0.08546497,inf,inf,inf,inf,1,1,1,1,2,2,2,2,3,1,1,1,0,0,0
187418202,187416501,43973845,36.4533956,127.4065695,40.599712,-108.66655,-26.848394,-0.00019583842,0.0002981637,-4.5001507e-05,2.455302,-17.845308,-3.4879096,-3.4385574,0.040229075,0.0045862254,0.07276097,-1.1987166,-1.7108362,1.6063037,-1.4354297,0.14188026,33.46734,26.544567,0.24543276,0.20549779,0.13075036,0.084786825,inf,inf,inf,inf,1,1,1,1,2,2,2,2,3,1,1,1,0,0,0
187527567,187525861,43973845,36.4533956,127.4065695,40.873596,-110.6096,-27.219933,-0.00019583842,0.0002981637,-4.5001507e-05,2.3453393,-17.989853,-3.3891864,-3.343047,0.040229075,0.0045862254,0.07276097,-0.8559509,-0.8004241,-0.64253384,-1.4249159,0.14188026,33.46734,26.916105,0.24447015,0.20485398,0.13042146,0.08451736,inf,inf,inf,inf,1,1,1,1,2,2,2,2,3,1,1,1,0,0,0
187626799,187625278,43973845,36.4533956,127.4065695,41.12451,-112.38241,-27.565252,-0.00019583842,0.0002981637,-4.5001507e-05,2.2616708,-18.005283,-3.6546767,-3.6104891,0.040229075,0.0045862254,0.07276097,-1.198602,0.22700374,-3.9376092,-1.41483,0.14188026,33.46734,27.261425,0.24289182,0.20368361,0.1288667,0.08406417,inf,inf,inf,inf,1,1,1,1,2,2,2,2,3,1,1,1,0,0,0
187726172,187724696,43973845,36.4533956,127.4065695,41.36837,-114.15925,-27.938221,-0.00019583842,0.0002981637,-4.5001507e-05,2.18521,-18.031355,-3.829767,-3.7863414,0.040229075,0.0045862254,0.07276097,-0.263262,-0.8632244,0.59596753,-1.4103942,0.14188026,33.46734,27.634394,0.2499728,0.20873003,0.135316,0.085975364,inf,inf,inf,inf,1,1,1,1,2,2,2,2,3,1,1,1,0,0,0
187825778,187824114,43973845,36.4533956,127.4065695,41.620293,-115.94597,-28.302544,-0.00019583842,0.0002981637,-4.5001507e-05,2.2196152,-18.177942,-3.5522428,-3.5096197,0.040229075,0.0045862254,0.07276097,0.33567333,-1.3207783,2.2206206,-1.4123546,0.14188026,33.46734,27.998716,0.24826711,0.20750889,0.13395287,0.08549878,inf,inf,inf,inf,1,1,1,1,2,2,2,2,3,1,1,1,0,0,0
187925077,187923531,43973845,36.4533956,127.4065695,41.879696,-117.74094,-28.653479,-0.00019583842,0.0002981637,-4.5001507e-05,2.24897,-18.227226,-3.549073,-3.5119507,0.040229075,0.0045862254,0.07276097,-0.48707816,-0.36514443,-1.1873233,-1.4182582,0.14188026,33.46734,28.349651,0.24658902,0.20630732,0.13076966,0.08502083,inf,inf,inf,inf,1,1,1,1,2,2,2,2,3,1,1,1,0,0,0
188025482,188022954,43973845,36.4533956,127.4065695,42.140453,-119.537445,-29.011885,-0.00019583842,0.0002981637,-4.5001507e-05,2.1957188,-18.23602,-3.704803,-3.6695075,0.040229075,0.0045862254,0.07276097,-1.3364475,-0.18921882,-1.4005951,-1.4270744,0.14188026,33.46734,28.708057,0.24490847,0.20509653,0.12841247,0.084519915,inf,inf,inf,inf,1,1,1,1,2,2,2,2,3,1,1,1,0,0,0
188124263,188122367,43973845,36.4533956,127.4065695,42.39022,-121.33707,-29.376991,-0.00019583842,0.0002981637,-4.5001507e-05,2.089913,-18.28383,-3.685057,-3.6483567,0.040229075,0.0045862254,0.07276097,-0.8673577,-0.8421943,2.1229854,-1.433069,0.14188026,33.46734,29.073164,0.25220913,0.2101854,0.13404599,0.086417064,inf,inf,inf,inf,1,1,1,1,2,2,2,2,3,1,1,1,0,0,0
188223572,188221784,43973845,36.4533956,127.4065695,42.640144,-123.12988,-29.731785,-0.00019583842,0.0002981637,-4.5001507e-05,2.0274131,-18.347162,-3.5897765,-3.5526953,0.040229075,0.0045862254,0.07276097,-1.1007354,-0.1661095,-1.4918302,-1.4330835,0.14188026,33.46734,29.427958,0.2502612,0.20883504,0.13218848,0.08587542,inf,inf,inf,inf,1,1,1,1,2,2,2,2,3,1,1,1,0,0,0
188322781,188321202,43973845,36.4533956,127.4065695,42.887543,-124.920235,-30.105284,-0.00019583842,0.0002981637,-4.5001507e-05,1.899331,-18.28415,-3.9207563,-3.8873625,0.040229075,0.0045862254,0.07276097,-1.5136461,0.58310527,-3.1495817,-1.4287703,0.14188026,33.46734,29.801456,0.24845155,0.20756194,0.13014786,0.08538172,inf,inf,inf,inf,1,1,1,1,2,2,2,2,3,1,1,1,0,0,0
188422409,188420619,43973845,36.4533956,127.4065695,43.121883,-126.7014,-30.512726,-0.00019583842,0.0002981637,-4.5001507e-05,1.7720025,-18.236895,-4.193152,-4.16094,0.040229075,0.0045862254,0.07276097,-1.1466558,-0.7268651,0.4144058,-1.4251956,0.14188026,33.46734,30.208899,0.24668865,0.2063121,0.12956816,0.084900394,inf,inf,inf,inf,1,1,1,1,2,2,2,2,3,1,1,1,0,0,0
188522051,188520037,43973845,36.4533956,127.4065695,43.349,-128.48766,-30.921698,-0.00019583842,0.0002981637,-4.5001507e-05,1.7353666,-18.330809,-3.9517643,-3.9233122,0.040229075,0.0045862254,0.07276097,0.111873664,-1.4273762,3.687171,-1.4217077,0.14188026,33.46734,30.61787,0.2449122,0.20504908,0.12867676,0.08440918,inf,inf,inf,inf,1,1,1,1,2,2,2,2,3,1,1,1,0,0,0
188621179,188619454,43973845,36.4533956,127.4065695,43.582455,-130.28307,-31.312788,-0.00019583842,0.0002981637,-4.5001507e-05,1.7358053,-18.35427,-3.899886,-3.880006,0.040229075,0.0045862254,0.07276097,-0.29113886,0.7464227,-2.2449796,-1.4121816,0.14188026,33.46734,31.00896,0.24323596,0.20383064,0.12611443,0.08393391,inf,inf,inf,inf,1,1,1,1,2,2,2,2,3,1,1,1,0,0,0
188721604,188718872,43973845,36.4533956,127.4065695,43.815636,-132.07141,-31.727825,-0.00019583842,0.0002981637,-4.5001507e-05,1.7597576,-18.180765,-4.3579803,-4.3463526,0.040229075,0.0045862254,0.07276097,-0.6857477,1.549198,-2.9301379,-1.4075338,0.14188026,33.46734,31.423998,0.25043106,0.2092337,0.13065782,0.08589202,inf,inf,inf,inf,1,1,1,1,2,2,2,2,3,1,1,1,0,0,0
188819949,188818289,43973845,36.4533956,127.4065695,44.05379,-133.84132,-32.168922,-0.00019583842,0.0002981637,-4.5001507e-05,1.7639209,-18.133453,-4.394576,-4.386639,0.040229075,0.0045862254,0.07276097,-0.116898246,-0.5267073,2.6410434,-1.4139173,0.14188026,33.46734,31.865095,0.24857157,0.20792723,0.12944955,0.08533981,inf,inf,inf,inf,1,1,1,1,2,2,2,2,3,1,1,1,0,0,0
188919302,188917707,43973845,36.4533956,127.4065695,44.29334,-135.60973,-32.599075,-0.00019583842,0.0002981637,-4.5001507e-05,1.7783611,-18.192583,-4.0704923,-4.070709,0.040229075,0.0045862254,0.07276097,0.30860916,-0.96710753,3.5986483,-1.4179707,0.14188026,33.46734,32.29525,0.24670397,0.20661893,0.1272669,0.08479921,inf,inf,inf,inf,1,1,1,1,2,2,2,2,3,1,1,1,0,0,0
189028736,189027066,43973845,36.4533956,127.4065695,44.554424,-137.5543,-33.04402,-0.00019583842,0.0002981637,-4.5001507e-05,1.8004622,-18.21819,-3.8347414,-3.846121,0.040229075,0.0045862254,0.07276097,0.012058863,-0.020227587,2.0854497,-1.4127321,0.14188026,33.46734,32.740196,0.24557547,0.2055195,0.124562725,0.08438289,inf,inf,inf,inf,1,1,1,1,2,2,2,2,3,1,1,1,0,0,0
189128003,189126483,43973845,36.4533956,127.4065695,44.788494,-139.31807,-33.437485,-0.00019583842,0.0002981637,-4.5001507e-05,1.8530798,-18.141903,-3.9441123,-3.9650877,0.040229075,0.0045862254,0.07276097,0.95386887,1.4792879,-3.7992692,-1.4048244,0.14188026,33.46734,33.13366,0.25291675,0.21098375,0.12837207,0.08632192,inf,inf,inf,inf,1,1,1,1,2,2,2,2,3,1,1,1,0,0,0
189227566,189225900,43973845,36.4533956,127.4065695,45.034813,-141.07132,-33.848083,-0.00019583842,0.0002981637,-4.5001507e-05,1.9585818,-18.033104,-4.1232963,-4.1493597,0.040229075,0.0045862254,0.07276097,1.4497514,0.43682882,0.10429439,-1.4014604,0.14188026,33.46734,33.54426,0.25077885,0.20951691,0.12628151,0.08568716,inf,inf,inf,inf,1,1,1,1,2,2,2,2,3,1,1,1,0,0,0
189326954,189325318,43973845,36.4533956,127.4065695,45.30392,-142.82056,-34.264584,-0.00019583842,0.0002981637,-4.5001507e-05,2.076184,-18.026615,-4.0057106,-4.036475,0.040229075,0.0045862254,0.07276097,-0.025613647,-1.1947587,3.3238866,-1.4065124,0.14188026,33.46734,33.96076,0.24884407,0.20817703,0.12455361,0.08512156,inf,inf,inf,inf,1,1,1,1,2,2,2,2,3,1,1,1,0,0,0
189426272,189424737,43973845,36.4533956,127.4065695,45.577087,-144.58154,-34.653347,-0.00019583842,0.0002981637,-4.5001507e-05,2.1717832,-18.086687,-3.69468,-3.7283816,0.040229075,0.0045862254,0.07276097,0.43797138,-0.9973138,2.1041765,-1.4124193,0.14188026,33.46734,34.34952,0.24691904,0.20683739,0.12207487,0.084552765,inf,inf,inf,inf,1,1,1,1,2,2,2,2,3,1,1,1,0,0,0
189525843,189524152,43973845,36.4533956,127.4065695,45.85203,-146.34863,-35.025436,-0.00019583842,0.0002981637,-4.5001507e-05,2.2435517,-18.068274,-3.6807907,-3.7159486,0.040229075,0.0045862254,0.07276097,-0.15727559,0.12302523,-0.29587966,-1.4209307,0.14188026,33.46734,34.72161,0.24503368,0.20548812,0.11934029,0.08398335,inf,inf,inf,inf,1,1,1,1,2,2,2,2,3,1,1,1,0,0,0
189626214,189623569,43973845,36.4533956,127.4065695,46.128,-148.1128,-35.39785,-0.00019583842,0.0002981637,-4.5001507e-05,2.2359703,-18.0383,-3.7200277,-3.7553856,0.040229075,0.0045862254,0.07276097,-0.11888302,-0.12750925,0.359246,-1.4301157,0.14188026,33.46734,35.094025,0.24322997,0.20419654,0.11773467,0.08345283,inf,inf,inf,inf,1,1,1,1,2,2,2,2,3,1,1,1,0,0,0
189724431,189722987,43973845,36.4533956,127.4065695,46.402077,-149.88017,-35.764835,-0.00019583842,0.0002981637,-4.5001507e-05,2.2412229,-18.064604,-3.6334007,-3.6659496,0.040229075,0.0045862254,0.07276097,-0.7239193,-0.19220798,0.30213273,-1.4375182,0.14188026,33.46734,35.46101,0.25026962,0.20922598,0.1222777,0.0853129,inf,inf,inf,inf,1,1,1,1,2,2,2,2,3,1,1,1,0,0,0
189824030,189822404,43973845,36.4533956,127.4065695,46.67147,-151.64627,-36.128483,-0.00019583842,0.0002981637,-4.5001507e-05,2.2246742,-18.083212,-3.6172047,-3.6509106,0.040229075,0.0045862254,0.07276097,-1.1147517,-0.15283996,0.69499385,-1.4440768,0.14188026,33.46734,35.824657,0.24833411,0.20787896,0.120675504,0.08478568,inf,inf,inf,inf,1,1,1,1,2,2,2,2,3,1,1,1,0,0,0
189923683,189921822,43973845,36.4533956,127.4065695,46.929592,-153.42119,-36.484375,-0.00019583842,0.0002981637,-4.5001507e-05,2.1339207,-18.153751,-3.4873939,-3.5221648,0.040229075,0.0045862254,0.07276097,-1.5124074,-0.5473658,0.5170164,-1.4447621,0.14188026,33.46734,36.18055,0.24641247,0.20653158,0.11936397,0.08425534,inf,inf,inf,inf,1,1,1,1,2,2,2,2,3,1,1,1,0,0,0
190022757,190021238,43973845,36.4533956,127.4065695,47.173252,-155.20316,-36.844204,-0.00019583842,0.0002981637,-4.5001507e-05,2.009566,-18.118303,-3.7308195,-3.765739,0.040229075,0.0045862254,0.07276097,-1.8454435,0.15098213,-2.2215288,-1.436984,0.14188026,33.46734,36.54038,0.24455597,0.20520443,0.11797763,0.08374639,inf,inf,inf,inf,1,1,1,1,2,2,2,2,3,1,1,1,0,0,0
190122230,190120656,43973845,36.4533956,127.4065695,47.398907,-156.98618,-37.2279,-0.00019583842,0.0002981637,-4.5001507e-05,1.912269,-18.105497,-3.887907,-3.9213645,0.040229075,0.0045862254,0.07276097,-0.2900304,-0.41749206,0.45765063,-1.4287695,0.14188026,33.46734,36.924076,0.25168413,0.2102622,0.123474434,0.085618496,inf,inf,inf,inf,1,1,1,1,2,2,2,2,3,1,1,1,0,0,0
190221678,190220073,43973845,36.4533956,127.4065695,47.626553,-158.76646,-37.606236,-0.00019583842,0.0002981637,-4.5001507e-05,1.9431316,-18.160175,-3.7345169,-3.7610986,0.040229075,0.0045862254,0.07276097,0.17115864,-1.052566,2.4482455,-1.428345,0.14188026,33.46734,37.30241,0.2495746,0.20880139,0.12264574,0.085045956,inf,inf,inf,inf,1,1,1,1,2,2,2,2,3,1,1,1,0,0,0
190320996,190319490,43973845,36.4533956,127.4065695,47.856735,-160.54622,-37.973145,-0.00019583842,0.0002981637,-4.5001507e-05,1.9691203,-18.168951,-3.708642,-3.732216,0.040229075,0.0045862254,0.07276097,-0.36561453,0.37700513,-0.9742518,-1.4342517,0.14188026,33.46734,37.66932,0.24761139,0.20742469,0.12066979,0.0844995,inf,inf,inf,inf,1,1,1,1,2,2,2,2,3,1,1,1,0,0,0
190430281,190428848,43973845,36.4533956,127.4065695,48.10343,-162.49753,-38.390076,-0.00019583842,0.0002981637,-4.5001507e-05,1.9301593,-18.096739,-3.915396,-3.9382145,0.040229075,0.0045862254,0.07276097,-0.6870028,0.3936319,-2.021072,-1.4458351,0.14188026,33.46734,38.08625,0.2464199,0.20664379,0.119682774,0.08416401,inf,inf,inf,inf,1,1,1,1,2,2,2,2,3,1,1,1,0,0,0
190520000,190518326,43973845,36.4533956,127.4065695,48.2972,-164.09145,-38.741253,-0.00019583842,0.0002981637,-4.5001507e-05,1.859021,-18.122498,-3.8594701,-3.8824062,0.040229075,0.0045862254,0.07276097,-0.32006565,-0.634867,1.465525,-1.4550778,0.14188026,33.46734,38.437428,0.24387366,0.20474176,0.11856733,0.08345683,inf,inf,inf,inf,1,1,1,1,2,2,2,2,3,1,1,1,0,0,0
190629328,190627682,43973845,36.4533956,127.4065695,48.531227,-166.04549,-39.155655,-0.00019583842,0.0002981637,-4.5001507e-05,1.8231554,-18.203032,-3.6229854,-3.6492536,0.040229075,0.0045862254,0.07276097,-0.73158896,-0.68694496,1.3747526,-1.4609919,0.14188026,33.46734,38.85183,0.24275471,0.20400324,0.11773814,0.08316148,inf,inf,inf,inf,1,1,1,1,2,2,2,2,3,1,1,1,0,0,0
190718866,190717158,43973845,36.4533956,127.4065695,48.71918,-167.64723,-39.490967,-0.00019583842,0.0002981637,-4.5001507e-05,1.7392085,-18.180403,-3.7300413,-3.7628121,0.040229075,0.0045862254,0.07276097,-0.9111405,0.58586353,-2.8000846,-1.4604605,0.14188026,33.46734,39.18714,0.24905168,0.20842843,0.12113214,0.08480718,inf,inf,inf,inf,1,1,1,1,2,2,2,2,3,1,1,1,0,0,0
190828166,190826516,43973845,36.4533956,127.4065695,48.926685,-169.59108,-39.927204,-0.00019583842,0.0002981637,-4.5001507e-05,1.6035236,-18.111347,-3.9779136,-4.016971,0.040229075,0.0045862254,0.07276097,-1.0250082,-0.7345645,0.6678564,-1.4574912,0.14188026,33.46734,39.62338,0.2478087,0.20762123,0.1208649,0.084491104,inf,inf,inf,inf,1,1,1,1,2,2,2,2,3,1,1,1,0,0,0
190917880,190915992,43973845,36.4533956,127.4065695,49.086853,-171.18182,-40.28393,-0.00019583842,0.0002981637,-4.5001507e-05,1.5521466,-18.189234,-3.7342606,-3.7786813,0.040229075,0.0045862254,0.07276097,0.13872619,-1.3967295,3.995179,-1.4566045,0.14188026,33.46734,39.980106,0.24514563,0.20565708,0.11995817,0.08377519,inf,inf,inf,inf,1,1,1,1,2,2,2,2,3,1,1,1,0,0,0
191027878,191025351,43973845,36.4533956,127.4065695,49.2786,-173.13257,-40.701897,-0.00019583842,0.0002981637,-4.5001507e-05,1.525698,-18.21405,-3.6765687,-3.7343168,0.040229075,0.0045862254,0.07276097,-0.268448,0.5495136,-3.1464462,-1.4545109,0.14188026,33.46734,40.39807,0.24399857,0.20488822,0.11831799,0.08346425,inf,inf,inf,inf,1,1,1,1,2,2,2,2,3,1,1,1,0,0,0
191126500,191124767,43973845,36.4533956,127.4065695,49.441025,-174.90353,-41.10985,-0.00019583842,0.0002981637,-4.5001507e-05,1.4467614,-18.079773,-4.1281877,-4.1982584,0.040229075,0.0045862254,0.07276097,-0.46591836,0.69456494,-2.9258888,-1.45625,0.14188026,33.46734,40.806026,0.25111905,0.20992342,0.12268514,0.08529972,inf,inf,inf,inf,1,1,1,1,2,2,2,2,3,1,1,1,0,0,0
191225999,191224184,43973845,36.4533956,127.4065695,49.590466,-176.6561,-41.542416,-0.00019583842,0.0002981637,-4.5001507e-05,1.3734621,-18.076393,-4.153008,-4.2334995,0.040229075,0.0045862254,0.07276097,-1.0570947,-0.17494912,-0.058939442,-1.4629996,0.14188026,33.46734,41.23859,0.24906525,0.20844984,0.14843833,0.085581094,inf,inf,inf,inf,1,1,1,1,2,2,2,2,3,1,1,1,0,0,0
191325547,191323601,43973845,36.4533956,127.4065695,49.737988,-178.40285,-41.98927,-0.00019583842,0.0002981637,-4.5001507e-05,1.3172846,-18.074024,-4.1823792,-4.2834334,0.040229075,0.0045862254,0.07276097,0.17325449,-0.58851177,1.3738252,-1.4696476,0.14188026,33.46734,41.685444,0.2471687,0.20709604,0.14258976,0.084979236,inf,inf,inf,inf,1,1,1,1,2,2,2,2,3,1,1,1,0,0,0
191424454,191423018,43973845,36.4533956,127.4065695,49.88018,-180.15283,-42.434063,-0.00019583842,0.0002981637,-4.5001507e-05,1.3383708,-18.078796,-4.137295,-4.2593226,0.040229075,0.0045862254,0.07276097,0.37049937,0.26059198,-0.7764052,-1.4719853,0.14188026,33.46734,42.130238,0.24527788,0.2060995,0.13773005,0.08445723,inf,inf,inf,inf,1,1,1,1,2,2,2,2,3,1,1,1,0,0,0
191523991,191522435,43973845,36.4533956,127.4065695,50.02281,-181.90063,-42.892612,-0.00019583842,0.0002981637,-4.5001507e-05,1.4036709,-17.979784,-4.3633738,-4.508151,0.040229075,0.0045862254,0.07276097,0.6358342,0.77581525,-2.302519,-1.4703898,0.14188026,33.46734,42.588787,0.24341254,0.20473383,0.1332911,0.08384073,inf,inf,inf,inf,1,1,1,1,2,2,2,2,3,1,1,1,0,0,0
191623902,191621852,43973845,36.4533956,127.4065695,50.1694,-183.63782,-43.38115,-0.00019583842,0.0002981637,-4.5001507e-05,1.4440037,-17.852985,-4.6047854,-4.774507,0.040229075,0.0045862254,0.07276097,0.9366133,0.33015022,0.089790404,-1.4698751,0.14188026,33.46734,43.077324,0.24159022,0.20340218,0.13019036,0.08323947,inf,inf,inf,inf,1,1,1,1,2,2,2,2,3,1,1,1,0,0,0
191722718,191721270,43973845,36.4533956,127.4065695,50.32063,-185.37138,-43.874466,-0.00019583842,0.0002981637,-4.5001507e-05,1.4784522,-17.886583,-4.4139214,-4.6061983,0.040229075,0.0045862254,0.07276097,-0.090461604,-0.7605117,2.8284411,-1.4699255,0.14188026,33.46734,43.57064,0.2487512,0.20840436,0.13503422,0.08503084,inf,inf,inf,inf,1,1,1,1,2,2,2,2,3,1,1,1,0,0,0
191822276,191820685,43973845,36.4533956,127.4065695,50.471592,-187.10425,-44.350998,-0.00019583842,0.0002981637,-4.5001507e-05,1.5394142,-17.908772,-4.2189837,-4.4378514,0.040229075,0.0045862254,0.07276097,0.1644403,-0.23470576,0.300173,-1.4634796,0.14188026,33.46734,44.047173,0.24678724,0.20702055,0.13111392,0.084431894,inf,inf,inf,inf,1,1,1,1,2,2,2,2,3,1,1,1,0,0,0
191922704,191920115,43973845,36.4533956,127.4065695,50.633232,-188.845,-44.82422,-0.00019583842,0.0002981637,-4.5001507e-05,1.6424472,-17.801733,-4.412946,-4.651955,0.040229075,0.0045862254,0.07276097,0.6129387,0.9097483,-1.0841656,-1.4547698,0.14188026,33.46734,44.520393,0.24489936,0.2056665,0.12768188,0.08384484,inf,inf,inf,inf,1,1,1,1,2,2,2,2,3,1,1,1,0,0,0
192021069,192019519,43973845,36.4533956,127.4065695,50.80897,-190.58635,-45.30329,-0.00019583842,0.0002981637,-4.5001507e-05,1.707189,-17.746344,-4.4787784,-4.726077,0.040229075,0.0045862254,0.07276097,0.6738256,-0.18990664,0.81851673,-1.4492857,0.14188026,33.46734,44.999466,0.24303259,0.20430678,0.125841,0.083269626,inf,inf,inf,inf,1,1,1,1,2,2,2,2,3,1,1,1,0,0,0
192120455,192118935,43973845,36.4533956,127.4065695,50.997433,-192.3365,-45.760975,-0.00019583842,0.0002981637,-4.5001507e-05,1.7744734,-17.824804,-4.153807,-4.398236,0.040229075,0.0045862254,0.07276097,0.34509298,-1.4724406,5.921235,-1.4466755,0.14188026,33.46734,45.45715,0.250282,0.2093333,0.13051625,0.085064195,inf,inf,inf,inf,1,1,1,1,2,2,2,2,3,1,1,1,0,0,0
192219950,192218352,43973845,36.4533956,127.4065695,51.196495,-194.0966,-46.17403,-0.00019583842,0.0002981637,-4.5001507e-05,1.8608288,-17.905655,-3.805703,-4.0446515,0.040229075,0.0045862254,0.07276097,1.0613241,0.7187283,-0.5845726,-1.4399474,0.14188026,33.46734,45.870205,0.24809709,0.20781146,0.12694645,0.08441301,inf,inf,inf,inf,1,1,1,1,2,2,2,2,3,1,1,1,0,0,0
192319244,192317769,43973845,36.4533956,127.4065695,51.40935,-195.85954,-46.596127,-0.00019583842,0.0002981637,-4.5001507e-05,2.001255,-17.76784,-4.155516,-4.3948627,0.040229075,0.0045862254,0.07276097,0.36158445,1.4805888,-3.5383744,-1.4424309,0.14188026,33.46734,46.2923,0.24616559,0.20643851,0.12396677,0.08386018,inf,inf,inf,inf,1,1,1,1,2,2,2,2,3,1,1,1,0,0,0
192428621,192427128,43973845,36.4533956,127.4065695,51.650707,-197.79483,-47.075844,-0.00019583842,0.0002981637,-4.5001507e-05,2.0460038,-17.766754,-4.124767,-4.355052,0.040229075,0.0045862254,0.07276097,-0.4813033,-0.8170949,2.7906673,-1.4564672,0.14188026,33.46734,46.77202,0.24491507,0.2055969,0.124167904,0.08350921,inf,inf,inf,inf,1,1,1,1,2,2,2,2,3,1,1,1,0,0,0
192528054,192526544,43973845,36.4533956,127.4065695,51.870827,-199.5668,-47.4799,-0.00019583842,0.0002981637,-4.5001507e-05,2.023273,-17.896704,-3.6933763,-3.9164922,0.040229075,0.0045862254,0.07276097,-0.8842796,-0.57651097,2.2240477,-1.4668517,0.14188026,33.46734,47.176075,0.24306187,0.20424752,0.122400165,0.082991146,inf,inf,inf,inf,1,1,1,1,2,2,2,2,3,1,1,1,0,0,0
192628602,192625961,43973845,36.4533956,127.4065695,52.085148,-201.34895,-47.85715,-0.00019583842,0.0002981637,-4.5001507e-05,1.9961026,-17.920052,-3.6235812,-3.8400564,0.040229075,0.0045862254,0.07276097,-1.004636,0.48226428,-0.41895795,-1.4651146,0.14188026,33.46734,47.553326,0.24123278,0.20289382,0.11948931,0.0824524,inf,inf,inf,inf,1,1,1,1,2,2,2,2,3,1,1,1,0,0,0
192726993,192725378,43973845,36.4533956,127.4065695,52.29072,-203.12932,-48.237553,-0.00019583842,0.0002981637,-4.5001507e-05,1.9770515,-17.882698,-3.7162464,-3.9254746,0.040229075,0.0045862254,0.07276097,-0.28532606,0.23136304,0.5945174,-1.4562051,0.14188026,33.46734,47.933727,0.24822387,0.20786431,0.12390336,0.084259056,inf,inf,inf,inf,1,1,1,1,2,2,2,2,3,1,1,1,0,0,0
192826213,192824795,43973845,36.4533956,127.4065695,52.4931,-204.9105,-48.608868,-0.00019583842,0.0002981637,-4.5001507e-05,2.0014758,-17.92764,-3.5007987,-3.7000692,0.040229075,0.0045862254,0.07276097,1.5612146,0.05710739,1.9016293,-1.4489446,0.14188026,33.46734,48.305042,0.24627289,0.20645936,0.122990206,0.08373701,inf,inf,inf,inf,1,1,1,1,2,2,2,2,3,1,1,1,0,0,0
192925931,192924211,43973845,36.4533956,127.4065695,52.692146,-206.69771,-48.959866,-0.00019583842,0.0002981637,-4.5001507e-05,2.0512528,-17.951372,-3.2798753,-3.472444,0.040229075,0.0045862254,0.07276097,-0.08713627,0.17881867,1.125551,-1.4454254,0.14188026,33.46734,48.65604,0.24436949,0.20508857,0.12107832,0.083219,inf,inf,inf,inf,1,1,1,1,2,2,2,2,3,1,1,1,0,0,0
193025432,193023628,43973845,36.4533956,127.4065695,52.892857,-208.48235,-49.305977,-0.00019583842,0.0002981637,-4.5001507e-05,2.1467454,-17.827248,-3.4448056,-3.6314795,0.040229075,0.0045862254,0.07276097,-0.69640017,0.7203421,-1.2378842,-1.4468455,0.14188026,33.46734,49.00215,0.2425203,0.20374237,0.119339734,0.082718104,inf,inf,inf,inf,1,1,1,1,2,2,2,2,3,1,1,1,0,0,0
193124534,193123045,43973845,36.4533956,127.4065695,53.098713,-210.25542,-49.662537,-0.00019583842,0.0002981637,-4.5001507e-05,2.1914783,-17.735083,-3.4523227,-3.6301348,0.040229075,0.0045862254,0.07276097,0.737713,0.32665405,1.680485,-1.4556607,0.14188026,33.46734,49.35871,0.24960236,0.20874107,0.1249801,0.08455194,inf,inf,inf,inf,1,1,1,1,2,2,2,2,3,1,1,1,0,0,0
193224072,193222461,43973845,36.4533956,127.4065695,53.300797,-212.01509,-50.004616,-0.00019583842,0.0002981637,-4.5001507e-05,2.2014306,-17.683825,-3.232923,-3.4000897,0.040229075,0.0045862254,0.07276097,-0.46900123,1.0057161,3.8256533,-1.4668587,0.14188026,33.46734,49.70079,0.2474229,0.2071967,0.12378274,0.08397752,inf,inf,inf,inf,1,1,1,1,2,2,2,2,3,1,1,1,0,0,0
193324549,193321878,43973845,36.4533956,127.4065695,53.494045,-213.76332,-50.324066,-0.00019583842,0.0002981637,-4.5001507e-05,2.1854465,-17.621967,-2.946026,-3.1097174,0.040229075,0.0045862254,0.07276097,-0.07053438,1.6467171,0.6042544,-1.4769801,0.14188026,33.46734,50.02024,0.24548507,0.20580438,0.12203381,0.08349349,inf,inf,inf,inf,1,1,1,1,2,2,2,2,3,1,1,1,0,0,0
193422746,193421300,43973845,36.4533956,127.4065695,53.679623,-215.50836,-50.609787,-0.00019583842,0.0002981637,-4.5001507e-05,2.1377258,-17.572117,-2.4663346,-2.627657,0.040229075,0.0045862254,0.07276097,1.0407109,0.58085245,5.30615,-1.4831438,0.14188026,33.46734,50.30596,0.24360134,0.2044366,0.12014916,0.083025016,inf,inf,inf,inf,1,1,1,1,2,2,2,2,3,1,1,1,0,0,0
193522233,193520711,43973845,36.4533956,127.4065695,53.8589,-217.24973,-50.850853,-0.00019583842,0.0002981637,-4.5001507e-05,2.0936477,-17.506458,-2.1558185,-2.3151894,0.040229075,0.0045862254,0.07276097,1.3062639,1.354797,-0.1426352,-1.4817611,0.14188026,33.46734,50.547028,0.24173684,0.20306595,0.117648855,0.082546756,inf,inf,inf,inf,1,1,1,1,2,2,2,2,3,1,1,1,0,0,0
193622608,193620127,43973845,36.4533956,127.4065695,54.03515,-218.9801,-51.08688,-0.00019583842,0.0002981637,-4.5001507e-05,2.072796,-17.343866,-2.3365843,-2.493123,0.040229075,0.0045862254,0.07276097,0.17032443,2.0886338,-1.5493844,-1.4757019,0.14188026,33.46734,50.783054,0.23987919,0.20169358,0.11588784,0.08206848,inf,inf,inf,inf,1,1,1,1,2,2,2,2,3,1,1,1,0,0,0
193720985,193719544,43973845,36.4533956,127.4065695,54.209217,-220.70079,-51.333897,-0.00019583842,0.0002981637,-4.5001507e-05,2.052928,-17.203869,-2.3892665,-2.5393083,0.040229075,0.0045862254,0.07276097,0.88804096,1.2316785,0.65019953,-1.4687163,0.14188026,33.46734,51.03007,0.246719,0.20662819,0.1216522,0.083951496,inf,inf,inf,inf,1,1,1,1,2,2,2,2,3,1,1,1,0,0,0
193820832,193818961,43973845,36.4533956,127.4065695,54.386616,-222.40811,-51.571342,-0.00019583842,0.0002981637,-4.5001507e-05,2.0643003,-17.100588,-2.1668959,-2.3102899,0.040229075,0.0045862254,0.07276097,-1.0463816,0.6452341,4.1021647,-1.4591582,0.14188026,33.46734,51.267517,0.24478137,0.20523605,0.12127017,0.083523154,inf,inf,inf,inf,1,1,1,1,2,2,2,2,3,1,1,1,0,0,0
193929817,193928319,43973845,36.4533956,127.4065695,54.58589,-224.27554,-51.794186,-0.00019583842,0.0002981637,-4.5001507e-05,2.1818938,-16.965256,-1.8054097,-1.9412771,0.040229075,0.0045862254,0.07276097,3.1371522,1.7363362,2.213275,-1.4457346,0.14188026,33.46734,51.49036,0.24353883,0.20440583,0.12017199,0.08328206,inf,inf,inf,inf,1,1,1,1,2,2,2,2,3,1,1,1,0,0,0
194020724,194017793,43973845,36.4533956,127.4065695,54.763023,-225.79387,-51.95424,-0.00019583842,0.0002981637,-4.5001507e-05,2.3747525,-16.838058,-1.6348858,-1.7638642,0.040229075,0.0045862254,0.07276097,-0.22206743,1.0197153,2.5160046,-1.4377272,0.14188026,33.46734,51.650414,0.24098544,0.20247544,0.11814302,0.08265348,inf,inf,inf,inf,1,1,1,1,2,2,2,2,3,1,1,1,0,0,0
194128613,194127152,43973845,36.4533956,127.4065695,55.004597,-227.6396,-52.116764,-0.00019583842,0.0002981637,-4.5001507e-05,2.6224012,-16.72095,-1.291498,-1.409223,0.040229075,0.0045862254,0.07276097,3.3082428,1.1085693,4.5674195,-1.4203429,0.14188026,33.46734,51.81294,0.2486542,0.20802678,0.12355153,0.084763914,inf,inf,inf,inf,1,1,1,1,2,2,2,2,3,1,1,1,0,0,0
194218234,194216626,43973845,36.4533956,127.4065695,55.22004,-229.13939,-52.22231,-0.00019583842,0.0002981637,-4.5001507e-05,2.9001436,-16.623169,-1.051356,-1.1617126,0.040229075,0.0045862254,0.07276097,4.528608,1.3664155,2.4476297,-1.3875936,0.14188026,33.46734,51.918484,0.24582627,0.20629667,0.12175283,0.084107384,inf,inf,inf,inf,1,1,1,1,2,2,2,2,3,1,1,1,0,0,0
194328063,194325984,43973845,36.4533956,127.4065695,55.532623,-230.96434,-52.33047,-0.00019583842,0.0002981637,-4.5001507e-05,3.4268115,-16.425213,-0.9561413,-1.0522826,0.040229075,0.0045862254,0.07276097,5.1812787,2.2627866,1.7836943,-1.3368851,0.14188026,33.46734,52.026646,0.24459454,0.20512958,0.12161936,0.08379812,inf,inf,inf,inf,1,1,1,1,2,2,2,2,3,1,1,1,0,0,0
194427390,194425401,43973845,36.4533956,127.4065695,55.87392,-232.60654,-52.42029,-0.00019583842,0.0002981637,-4.5001507e-05,4.036999,-16.187551,-0.94392884,-1.0273426,0.040229075,0.0045862254,0.07276097,7.1430254,3.3228815,-1.4834116,-1.2828331,0.14188026,33.46734,52.116467,0.24272189,0.20377053,0.12254739,0.083500795,inf,inf,inf,inf,1,1,1,1,2,2,2,2,3,1,1,1,0,0,0
194526399,194524817,43973845,36.4533956,127.4065695,56.281097,-234.22272,-52.507816,-0.00019583842,0.0002981637,-4.5001507e-05,4.7138934,-15.921974,-0.9119034,-0.9839316,0.040229075,0.0045862254,0.07276097,6.23984,3.7485137,-1.8082981,-1.2265611,0.14188026,33.46734,52.20399,0.24090418,0.20243503,0.1245148,0.08336303,inf,inf,inf,inf,1,1,1,1,2,2,2,2,3,1,1,1,0,0,0
194625786,194624233,43973845,36.4533956,127.4065695,56.764267,-235.8075,-52.594315,-0.00019583842,0.0002981637,-4.5001507e-05,5.510164,-15.562157,-0.93097436,-0.9928208,0.040229075,0.0045862254,0.07276097,8.999986,5.601485,-2.6827931,-1.1628324,0.14188026,33.46734,52.29049,0.23909098,0.20143509,0.12671524,0.08339475,inf,inf,inf,inf,1,1,1,1,2,2,2,2,3,1,1,1,0,0,0
194727071,194723650,43973845,36.4533956,127.4065695,57.336243,-237.35045,-52.68975,-0.00019583842,0.0002981637,-4.5001507e-05,6.398795,-15.097799,-1.0515608,-1.1045455,0.040229075,0.0045862254,0.07276097,8.886844,4.0309935,-0.16829556,-1.1081414,0.14188026,33.46734,52.385925,0.24607778,0.20638418,0.13730542,0.08604419,inf,inf,inf,inf,1,1,1,1,2,2,2,2,3,1,1,1,0,0,0
194824561,194823066,43973845,36.4533956,127.4065695,57.99744,-238.84546,-52.797752,-0.00019583842,0.0002981637,-4.5001507e-05,7.265244,-14.593032,-1.2134496,-1.2570691,0.040229075,0.0045862254,0.07276097,9.111783,5.2136025,0.021036277,-1.063946,0.14188026,33.46734,52.493927,0.24418923,0.20500387,0.14186293,0.08658569,inf,inf,inf,inf,1,1,1,1,2,2,2,2,3,1,1,1,0,0,0
194924088,194922482,43973845,36.4533956,127.4065695,58.746372,-240.28644,-52.91737,-0.00019583842,0.0002981637,-4.5001507e-05,8.0806055,-14.082411,-1.2799186,-1.3153869,0.040229075,0.0045862254,0.07276097,7.632958,5.545259,1.0587926,-1.0249634,0.14188026,33.46734,52.613544,0.24229537,0.2036352,0.1454834,0.08718892,inf,inf,inf,inf,1,1,1,1,2,2,2,2,3,1,1,1,0,0,0
195023539,195021899,43973845,36.4533956,127.4065695,59.57229,-241.67409,-53.042076,-0.00019583842,0.0002981637,-4.5001507e-05,8.815487,-13.573959,-1.2763467,-1.3065488,0.040229075,0.0045862254,0.07276097,5.2025247,4.168698,3.12575,-0.98392475,0.14188026,33.46734,52.73825,0.24043351,0.20230754,0.14721893,0.08776388,inf,inf,inf,inf,1,1,1,1,2,2,2,2,3,1,1,1,0,0,0
195122913,195121315,43973845,36.4533956,127.4065695,60.46483,-243.01031,-53.16708,-0.00019583842,0.0002981637,-4.5001507e-05,9.515951,-13.002285,-1.369843,-1.3958575,0.040229075,0.0045862254,0.07276097,8.018984,6.9647818,-1.3277603,-0.93363106,0.14188026,33.46734,52.863255,0.24800135,0.20737566,0.15860114,0.091034785,inf,inf,inf,inf,1,1,1,1,2,2,2,2,3,1,1,1,0,0,0
195222309,195220740,43973845,36.4533956,127.4065695,61.41275,-244.28181,-53.309864,-0.00019583842,0.0002981637,-4.5001507e-05,10.133505,-12.447926,-1.4326239,-1.4581857,0.040229075,0.0045862254,0.07276097,5.0989814,3.991799,2.283706,-0.90733993,0.14188026,33.46734,53.00604,0.24574354,0.20588006,0.15754344,0.09132135,inf,inf,inf,inf,1,1,1,1,2,2,2,2,3,1,1,1,0,0,0
195321715,195320155,43973845,36.4533956,127.4065695,62.4004,-245.50241,-53.451405,-0.00019583842,0.0002981637,-4.5001507e-05,10.614744,-11.960038,-1.3985614,-1.4235445,0.040229075,0.0045862254,0.07276097,4.3146353,5.831493,-1.6919394,-0.87251043,0.14188026,33.46734,53.14758,0.24378031,0.20456986,0.1560095,0.091533065,inf,inf,inf,inf,1,1,1,1,2,2,2,2,3,1,1,1,0,0,0
195421023,195419565,43973845,36.4533956,127.4065695,63.437668,-246.67273,-53.58844,-0.00019583842,0.0002981637,-4.5001507e-05,11.077253,-11.489942,-1.2879647,-1.3138537,0.040229075,0.0045862254,0.07276097,4.8418865,4.93549,3.075152,-0.8300574,0.14188026,33.46734,53.284615,0.24188267,0.20329565,0.15283668,0.09140202,inf,inf,inf,inf,1,1,1,1,2,2,2,2,3,1,1,1,0,0,0
195520642,195518984,43973845,36.4533956,127.4065695,64.520836,-247.79483,-53.713203,-0.00019583842,0.0002981637,-4.5001507e-05,11.516193,-11.034905,-1.1001353,-1.1285424,0.040229075,0.0045862254,0.07276097,3.9475534,4.7475576,1.1047299,-0.7820819,0.14188026,33.46734,53.409378,0.24003275,0.20205565,0.14938119,0.09118221,inf,inf,inf,inf,1,1,1,1,2,2,2,2,3,1,1,1,0,0,0
195620931,195618398,43973845,36.4533956,127.4065695,65.64752,-248.86691,-53.815838,-0.00019583842,0.0002981637,-4.5001507e-05,12.017679,-10.503065,-0.8628078,-0.8944826,0.040229075,0.0045862254,0.07276097,6.2746305,6.4777813,3.658344,-0.71967703,0.14188026,33.46734,53.512012,0.23820263,0.200815,0.14559388,0.090826705,inf,inf,inf,inf,1,1,1,1,2,2,2,2,3,1,1,1,0,0,0
195719477,195717814,43973845,36.4533956,127.4065695,66.81359,-249.87167,-53.908913,-0.00019583842,0.0002981637,-4.5001507e-05,12.581093,-9.738889,-0.8826621,-0.91937065,0.040229075,0.0045862254,0.07276097,7.7479,9.595137,-2.102132,-0.65294987,0.14188026,33.46734,53.605087,0.2457801,0.20600682,0.15314294,0.09382884,inf,inf,inf,inf,1,1,1,1,2,2,2,2,3,1,1,1,0,0,0
195818689,195817231,43973845,36.4533956,127.4065695,68.03525,-250.78998,-54.01137,-0.00019583842,0.0002981637,-4.5001507e-05,13.107967,-8.886182,-0.9715561,-1.0102311,0.040229075,0.0045862254,0.07276097,4.7250733,6.9022107,2.2917204,-0.6164696,0.14188026,33.46734,53.707546,0.24378745,0.20474349,0.15153949,0.09408853,inf,inf,inf,inf,1,1,1,1,2,2,2,2,3,1,1,1,0,0,0
195928120,195926589,43973845,36.4533956,127.4065695,69.43799,-251.72267,-54.112133,-0.00019583842,0.0002981637,-4.5001507e-05,13.52703,-8.213274,-0.8082043,-0.84736365,0.040229075,0.0045862254,0.07276097,4.7233543,7.0550084,0.58491904,-0.5767421,0.14188026,33.46734,53.808308,0.24263398,0.20411189,0.15060449,0.09466817,inf,inf,inf,inf,1,1,1,1,2,2,2,2,3,1,1,1,0,0,0
196027650,196026008,43973845,36.4533956,127.4065695,70.7575,-252.50395,-54.1948,-0.00019583842,0.0002981637,-4.5001507e-05,13.891164,-7.5339394,-0.72775745,-0.7698881,0.040229075,0.0045862254,0.07276097,4.139906,7.625778,0.69673014,-0.51905197,0.14188026,33.46734,53.890976,0.24076518,0.20290615,0.14683597,0.094196066,inf,inf,inf,inf,1,1,1,1,2,2,2,2,3,1,1,1,0,0,0
196127206,196125422,43973845,36.4533956,127.4065695,72.12103,-253.21033,-54.276875,-0.00019583842,0.0002981637,-4.5001507e-05,14.254061,-6.729086,-0.78096664,-0.82401,0.040229075,0.0045862254,0.07276097,4.0231223,7.569914,2.6376119,-0.47302252,0.14188026,33.46734,53.97305,0.24871676,0.20833509,0.1540181,0.09723115,inf,inf,inf,inf,1,1,1,1,2,2,2,2,3,1,1,1,0,0,0
196226318,196224838,43973845,36.4533956,127.4065695,73.499794,-253.86629,-54.34745,-0.00019583842,0.0002981637,-4.5001507e-05,14.467076,-6.378304,-0.33769828,-0.38577372,0.040229075,0.0045862254,0.07276097,2.0894349,3.0136237,4.4736366,-0.43664244,0.14188026,33.46734,54.043625,0.24644694,0.2069608,0.15070748,0.096869186,inf,inf,inf,inf,1,1,1,1,2,2,2,2,3,1,1,1,0,0,0
196326841,196324255,43973845,36.4533956,127.4065695,74.89116,-254.48695,-54.373962,-0.00019583842,0.0002981637,-4.5001507e-05,14.695322,-5.8604364,-0.051606882,-0.10463494,0.040229075,0.0045862254,0.07276097,3.8423824,8.9888735,2.3241262,-0.36051112,0.14188026,33.46734,54.070137,0.24442211,0.20571399,0.1447888,0.09560234,inf,inf,inf,inf,1,1,1,1,2,2,2,2,3,1,1,1,0,0,0
196425295,196423671,43973845,36.4533956,127.4065695,76.317795,-255.0322,-54.390984,-0.00019583842,0.0002981637,-4.5001507e-05,14.944322,-4.9846597,-0.13978016,-0.19323006,0.040229075,0.0045862254,0.07276097,1.5707272,9.053405,-2.8975852,-0.2968049,0.14188026,33.46734,54.08716,0.24245596,0.20446546,0.14064755,0.09472206,inf,inf,inf,inf,1,1,1,1,2,2,2,2,3,1,1,1,0,0,0
196524681,196523088,43973845,36.4533956,127.4065695,77.76824,-255.4973,-54.4081,-0.00019583842,0.0002981637,-4.5001507e-05,15.134505,-4.280366,-0.051601313,-0.10276321,0.040229075,0.0045862254,0.07276097,2.256313,6.262182,2.3785532,-0.25798813,0.14188026,33.46734,54.104275,0.24060798,0.20327786,0.13885494,0.09455309,inf,inf,inf,inf,1,1,1,1,2,2,2,2,3,1,1,1,0,0,0
196623971,196622504,43973845,36.4533956,127.4065695,79.24068,-255.90004,-54.404625,-0.00019583842,0.0002981637,-4.5001507e-05,15.319853,-3.6585917,0.1762649,0.12864767,0.040229075,0.0045862254,0.07276097,2.7783089,6.594063,2.902821,-0.20950128,0.14188026,33.46734,54.1008,0.23874918,0.20205568,0.13588972,0.09394533,inf,inf,inf,inf,1,1,1,1,2,2,2,2,3,1,1,1,0,0,0
196723571,196721921,43973845,36.4533956,127.4065695,80.733574,-256.23215,-54.38323,-0.00019583842,0.0002981637,-4.5001507e-05,15.517142,-2.8671043,0.34521905,0.29796886,0.040229075,0.0045862254,0.07276097,2.1028843,8.273535,2.2476487,-0.13932566,0.14188026,33.46734,54.079403,0.24634424,0.20753957,0.14120163,0.09663857,inf,inf,inf,inf,1,1,1,1,2,2,2,2,3,1,1,1,0,0,0
196823860,196821337,43973845,36.4533956,127.4065695,82.244865,-256.48532,-54.34898,-0.00019583842,0.0002981637,-4.5001507e-05,15.663676,-1.9452318,0.37296447,0.328702,0.040229075,0.0045862254,0.07276097,0.7704533,8.715998,-1.5666757,-0.06803306,0.14188026,33.46734,54.045155,0.24436627,0.20630391,0.13865124,0.096233435,inf,inf,inf,inf,1,1,1,1,2,2,2,2,3,1,1,1,0,0,0
196922659,196920753,43973845,36.4533956,127.4065695,83.77232,-256.64194,-54.314114,-0.00019583842,0.0002981637,-4.5001507e-05,15.747012,-0.9509897,0.32102174,0.28187606,0.040229075,0.0045862254,0.07276097,0.74936384,9.783726,0.7511593,-0.014988156,0.14188026,33.46734,54.01029,0.2424034,0.20505217,0.13679148,0.0960304,inf,inf,inf,inf,1,1,1,1,2,2,2,2,3,1,1,1,0,0,0
197022017,197020170,43973845,36.4533956,127.4065695,85.30651,-256.70325,-54.280453,-0.00019583842,0.0002981637,-4.5001507e-05,15.797652,-0.10185208,0.36618218,0.33242294,0.040229075,0.0045862254,0.07276097,0.6672825,9.018811,-0.5315215,0.019827582,0.14188026,33.46734,53.976627,0.24050848,0.20383191,0.13523078,0.0959288,inf,inf,inf,inf,1,1,1,1,2,2,2,2,3,1,1,1,0,0,0
197121424,197119587,43973845,36.4533956,127.4065695,86.848915,-256.68228,-54.234882,-0.00019583842,0.0002981637,-4.5001507e-05,15.840199,0.65466964,0.5153507,0.48770922,0.040229075,0.0045862254,0.07276097,0.19562405,7.712025,3.5585957,0.059174318,0.14188026,33.46734,53.931057,0.24822727,0.20946726,0.14131519,0.09908372,inf,inf,inf,inf,1,1,1,1,2,2,2,2,3,1,1,1,0,0,0
197220692,197219003,43973845,36.4533956,127.4065695,88.38043,-256.59225,-54.181076,-0.00019583842,0.0002981637,-4.5001507e-05,15.831729,1.4567552,0.5839685,0.55732477,0.040229075,0.0045862254,0.07276097,0.015099461,8.17719,1.1985435,0.112844795,0.14188026,33.46734,53.87725,0.2459443,0.20803837,0.13810076,0.09825847,inf,inf,inf,inf,1,1,1,1,2,2,2,2,3,1,1,1,0,0,0
197321230,197318420,43973845,36.4533956,127.4065695,89.91321,-256.41516,-54.120472,-0.00019583842,0.0002981637,-4.5001507e-05,15.748674,2.3491974,0.50238967,0.48518887,0.040229075,0.0045862254,0.07276097,-1.36442,7.166349,-2.4873717,0.16588499,0.14188026,33.46734,53.816647,0.24392153,0.20674932,0.13571528,0.097681575,inf,inf,inf,inf,1,1,1,1,2,2,2,2,3,1,1,1,0,0,0
197429607,197427780,43973845,36.4533956,127.4065695,91.59251,-256.12732,-54.05445,-0.00019583842,0.0002981637,-4.5001507e-05,15.680068,3.1594512,0.62231284,0.6144641,0.040229075,0.0045862254,0.07276097,0.38569018,7.5359144,1.8407657,0.20947532,0.14188026,33.46734,53.750626,0.24266534,0.20608526,0.13447492,0.09758967,inf,inf,inf,inf,1,1,1,1,2,2,2,2,3,1,1,1,0,0,0
197518757,197517253,43973845,36.4533956,127.4065695,92.961296,-255.83311,-53.983925,-0.00019583842,0.0002981637,-4.5001507e-05,15.627883,3.7142591,0.82903033,0.8271172,0.040229075,0.0045862254,0.07276097,-0.18321684,7.7229753,2.2860553,0.25870866,0.14188026,33.46734,53.6801,0.24002905,0.2045596,0.13152988,0.096640676,inf,inf,inf,inf,1,1,1,1,2,2,2,2,3,1,1,1,0,0,0
197628332,197626611,43973845,36.4533956,127.4065695,94.6283,-255.3917,-53.878998,-0.00019583842,0.0002981637,-4.5001507e-05,15.462109,4.5875077,0.9189052,0.9264344,0.040229075,0.0045862254,0.07276097,-2.1465662,9.231214,0.9240509,0.33362514,0.14188026,33.46734,53.575172,0.23882978,0.2035432,0.12921572,0.09589542,inf,inf,inf,inf,1,1,1,1,2,2,2,2,3,1,1,1,0,0,0
197727903,197726028,43973845,36.4533956,127.4065695,96.13134,-254.90335,-53.77205,-0.00019583842,0.0002981637,-4.5001507e-05,15.230491,5.4671845,0.9222363,0.94366163,0.040229075,0.0045862254,0.07276097,-2.2357354,9.943441,0.61887455,0.39438385,0.14188026,33.46734,53.468224,0.2462338,0.20918432,0.13478869,0.09900921,inf,inf,inf,inf,1,1,1,1,2,2,2,2,3,1,1,1,0,0,0
197827390,197825445,43973845,36.4533956,127.4065695,97.60897,-254.32996,-53.66077,-0.00019583842,0.0002981637,-4.5001507e-05,14.9962435,6.2746143,0.9986776,1.0349395,0.040229075,0.0045862254,0.07276097,-1.3874085,5.9384594,0.3306648,0.4367375,0.14188026,33.46734,53.356945,0.2441852,0.20821701,0.13319507,0.098741785,inf,inf,inf,inf,1,1,1,1,2,2,2,2,3,1,1,1,0,0,0
197926370,197924861,43973845,36.4533956,127.4065695,99.070496,-253.67938,-53.53408,-0.00019583842,0.0002981637,-4.5001507e-05,14.80572,6.959164,1.2012837,1.2510228,0.040229075,0.0045862254,0.07276097,-1.7971777,6.1420255,4.0708604,0.47265068,0.14188026,33.46734,53.230255,0.24215512,0.20686223,0.13129811,0.09821095,inf,inf,inf,inf,1,1,1,1,2,2,2,2,3,1,1,1,0,0,0
198026077,198024278,43973845,36.4533956,127.4065695,100.520134,-252.96347,-53.384987,-0.00019583842,0.0002981637,-4.5001507e-05,14.616695,7.579995,1.3696398,1.4335802,0.040229075,0.0045862254,0.07276097,-2.6097584,7.206239,1.385852,0.51724166,0.14188026,33.46734,53.08116,0.24019617,0.20554426,0.12897898,0.09743712,inf,inf,inf,inf,1,1,1,1,2,2,2,2,3,1,1,1,0,0,0
198125290,198123694,43973845,36.4533956,127.4065695,101.95342,-252.18225,-53.224415,-0.00019583842,0.0002981637,-4.5001507e-05,14.396979,8.190851,1.4855384,1.5618085,0.040229075,0.0045862254,0.07276097,-0.8817072,5.0427833,1.2754725,0.55593324,0.14188026,33.46734,52.92059,0.24763344,0.21130003,0.1339395,0.100299045,inf,inf,inf,inf,1,1,1,1,2,2,2,2,3,1,1,1,0,0,0
198225744,198223111,43973845,36.4533956,127.4065695,103.35931,-251.35352,-53.043247,-0.00019583842,0.0002981637,-4.5001507e-05,14.190077,8.762304,1.7176284,1.8075858,0.040229075,0.0045862254,0.07276097,-1.9540578,6.1294246,3.379556,0.5833808,0.14188026,33.46734,52.73942,0.2453252,0.20974159,0.13138324,0.09926264,inf,inf,inf,inf,1,1,1,1,2,2,2,2,3,1,1,1,0,0,0
198324241,198322528,43973845,36.4533956,127.4065695,104.73789,-250.46655,-52.83781,-0.00019583842,0.0002981637,-4.5001507e-05,13.981101,9.333279,1.8776418,1.982857,0.040229075,0.0045862254,0.07276097,-0.37270156,4.535735,1.3369482,0.60926116,0.14188026,33.46734,52.533985,0.24325003,0.20834349,0.12898825,0.09833013,inf,inf,inf,inf,1,1,1,1,2,2,2,2,3,1,1,1,0,0,0
198423512,198421944,43973845,36.4533956,127.4065695,106.0962,-249.52368,-52.617172,-0.00019583842,0.0002981637,-4.5001507e-05,13.771868,9.8587265,2.0461779,2.1650596,0.040229075,0.0045862254,0.07276097,-1.8679926,5.1308236,3.2688892,0.63733065,0.14188026,33.46734,52.313347,0.24125025,0.20696355,0.12694636,0.09746861,inf,inf,inf,inf,1,1,1,1,2,2,2,2,3,1,1,1,0,0,0
198522887,198521361,43973845,36.4533956,127.4065695,107.43729,-248.53174,-52.378036,-0.00019583842,0.0002981637,-4.5001507e-05,13.575761,10.310155,2.2204795,2.352407,0.040229075,0.0045862254,0.07276097,-2.791303,4.780903,2.8026376,0.6674585,0.14188026,33.46734,52.07421,0.23927589,0.2055868,0.12484828,0.09654114,inf,inf,inf,inf,1,1,1,1,2,2,2,2,3,1,1,1,0,0,0
198622574,198620777,43973845,36.4533956,127.4065695,108.75974,-247.4917,-52.121693,-0.00019583842,0.0002981637,-4.5001507e-05,13.35475,10.780698,2.3123946,2.4589338,0.040229075,0.0045862254,0.07276097,-1.535396,3.5483496,-1.0457323,0.6896789,0.14188026,33.46734,51.817867,0.23736916,0.20423985,0.12275089,0.09552139,inf,inf,inf,inf,1,1,1,1,2,2,2,2,3,1,1,1,0,0,0
198721839,198720193,43973845,36.4533956,127.4065695,110.06671,-246.40413,-51.850983,-0.00019583842,0.0002981637,-4.5001507e-05,13.201887,11.202704,2.4705334,2.632939,0.040229075,0.0045862254,0.07276097,-1.0231805,3.9463565,2.9795907,0.69882196,0.14188026,33.46734,51.547157,0.24442749,0.20989038,0.12746629,0.09815475,inf,inf,inf,inf,1,1,1,1,2,2,2,2,3,1,1,1,0,0,0
198821367,198819609,43973845,36.4533956,127.4065695,111.36334,-245.28511,-51.556343,-0.00019583842,0.0002981637,-4.5001507e-05,13.15015,11.521745,2.7771342,2.9528437,0.040229075,0.0045862254,0.07276097,0.7893081,3.5588624,1.7454879,0.7128736,0.14188026,33.46734,51.252518,0.24237943,0.20846283,0.12539995,0.097044446,inf,inf,inf,inf,1,1,1,1,2,2,2,2,3,1,1,1,0,0,0
198921671,198919026,43973845,36.4533956,127.4065695,112.65376,-244.13048,-51.24773,-0.00019583842,0.0002981637,-4.5001507e-05,13.039133,11.938828,2.7363842,2.9211917,0.040229075,0.0045862254,0.07276097,-2.1307244,5.829951,-2.8541992,0.73566544,0.14188026,33.46734,50.943905,0.24039924,0.20707308,0.12294583,0.09571836,inf,inf,inf,inf,1,1,1,1,2,2,2,2,3,1,1,1,0,0,0
199020095,199018442,43973845,36.4533956,127.4065695,113.934494,-242.92923,-50.95905,-0.00019583842,0.0002981637,-4.5001507e-05,12.910793,12.355058,2.4175518,2.6144943,0.040229075,0.0045862254,0.07276097,-1.5343771,4.125747,-4.3707266,0.7491317,0.14188026,33.46734,50.655224,0.2384975,0.20572181,0.12162878,0.09470738,inf,inf,inf,inf,1,1,1,1,2,2,2,2,3,1,1,1,0,0,0
199119624,199117858,43973845,36.4533956,127.4065695,115.20933,-241.68788,-50.694336,-0.00019583842,0.0002981637,-4.5001507e-05,12.869934,12.66355,2.3004937,2.507867,0.040229075,0.0045862254,0.07276097,2.219579,1.7572258,1.3892176,0.75281376,0.14188026,33.46734,50.39051,0.24561325,0.21139912,0.12723762,0.097134486,inf,inf,inf,inf,1,1,1,1,2,2,2,2,3,1,1,1,0,0,0
199229052,199227216,43973845,36.4533956,127.4065695,116.600914,-240.29944,-50.40353,-0.00019583842,0.0002981637,-4.5001507e-05,12.871858,12.925226,2.3737605,2.5904353,0.040229075,0.0045862254,0.07276097,-0.47873938,3.4240055,0.2472999,0.7526613,0.14188026,33.46734,50.099705,0.24413137,0.21046484,0.12606892,0.09589979,inf,inf,inf,inf,1,1,1,1,2,2,2,2,3,1,1,1,0,0,0
199318427,199316690,43973845,36.4533956,127.4065695,117.741875,-239.14293,-50.15961,-0.00019583842,0.0002981637,-4.5001507e-05,12.917222,13.08421,2.3314276,2.5579154,0.040229075,0.0045862254,0.07276097,0.3036307,1.4083462,-0.55367273,0.7522641,0.14188026,33.46734,49.855785,0.24142273,0.20839004,0.123818114,0.09425011,inf,inf,inf,inf,1,1,1,1,2,2,2,2,3,1,1,1,0,0,0
199427642,199426048,43973845,36.4533956,127.4065695,119.14981,-237.70746,-49.87073,-0.00019583842,0.0002981637,-4.5001507e-05,13.016672,13.24333,2.158614,2.3995311,0.040229075,0.0045862254,0.07276097,0.78513694,1.0106175,-2.6763666,0.75147235,0.14188026,33.46734,49.566906,0.24019636,0.20761538,0.12288518,0.09300962,inf,inf,inf,inf,1,1,1,1,2,2,2,2,3,1,1,1,0,0,0
199527189,199525464,43973845,36.4533956,127.4065695,120.444984,-236.38704,-49.624474,-0.00019583842,0.0002981637,-4.5001507e-05,13.149755,13.338689,1.9633756,2.2162151,0.040229075,0.0045862254,0.07276097,1.903947,0.33435908,-3.5868688,0.74913406,0.14188026,33.46734,49.32065,0.23827855,0.20620207,0.1218162,0.091480434,inf,inf,inf,inf,1,1,1,1,2,2,2,2,3,1,1,1,0,0,0
199627544,199624891,43973845,36.4533956,127.4065695,121.7554,-235.05623,-49.399593,-0.00019583842,0.0002981637,-4.5001507e-05,13.2953615,13.391893,1.740786,2.0032463,0.040229075,0.0045862254,0.07276097,2.2329857,-0.48625422,-4.0311007,0.74060005,0.14188026,33.46734,49.095768,0.23639145,0.20477633,0.12090614,0.08993458,inf,inf,inf,inf,1,1,1,1,2,2,2,2,3,1,1,1,0,0,0
199725936,199724296,43973845,36.4533956,127.4065695,123.08087,-233.72208,-49.196957,-0.00019583842,0.0002981637,-4.5001507e-05,13.461567,13.382513,1.5116982,1.7845883,0.040229075,0.0045862254,0.07276097,2.6831644,-1.3263555,-2.8028932,0.7250841,0.14188026,33.46734,48.89313,0.24334812,0.21023637,0.12650098,0.09146194,inf,inf,inf,inf,1,1,1,1,2,2,2,2,3,1,1,1,0,0,0
199825407,199823712,43973845,36.4533956,127.4065695,124.42349,-232.3953,-49.019318,-0.00019583842,0.0002981637,-4.5001507e-05,13.67632,13.284593,1.3081821,1.5863885,0.040229075,0.0045862254,0.07276097,3.269464,-2.1409895,-1.9564619,0.70706123,0.14188026,33.46734,48.715492,0.24138594,0.20874651,0.1260084,0.089894965,inf,inf,inf,inf,1,1,1,1,2,2,2,2,3,1,1,1,0,0,0
199924589,199923128,43973845,36.4533956,127.4065695,125.79139,-231.08015,-48.85951,-0.00019583842,0.0002981637,-4.5001507e-05,13.902569,13.176812,1.2578405,1.5374081,0.040229075,0.0045862254,0.07276097,2.9522662,-1.6530547,0.91170216,0.69123286,0.14188026,33.46734,48.555683,0.23949103,0.20727882,0.12556836,0.08832147,inf,inf,inf,inf,1,1,1,1,2,2,2,2,3,1,1,1,0,0,0
200024043,200022544,43973845,36.4533956,127.4065695,127.18103,-229.77759,-48.697212,-0.00019583842,0.0002981637,-4.5001507e-05,14.115872,13.079452,1.3798754,1.6558,0.040229075,0.0045862254,0.07276097,3.0677705,-1.8879426,-0.940641,0.6706299,0.14188026,33.46734,48.393387,0.23762593,0.20581436,0.12465077,0.08687318,inf,inf,inf,inf,1,1,1,1,2,2,2,2,3,1,1,1,0,0,0
200123656,200121960,43973845,36.4533956,127.4065695,128.59474,-228.4924,-48.546127,-0.00019583842,0.0002981637,-4.5001507e-05,14.376957,12.865244,1.1792096,1.4470546,0.040229075,0.0045862254,0.07276097,3.4425817,-3.0343215,-2.017085,0.6468078,0.14188026,33.46734,48.242302,0.24469653,0.21113245,0.12969837,0.08831661,inf,inf,inf,inf,1,1,1,1,2,2,2,2,3,1,1,1,0,0,0
200223360,200221375,43973845,36.4533956,127.4065695,130.0211,-227.24141,-48.415203,-0.00019583842,0.0002981637,-4.5001507e-05,14.648474,12.590037,0.9953696,1.2551721,0.040229075,0.0045862254,0.07276097,3.8590443,-4.3113313,-1.5145501,0.6229055,0.14188026,33.46734,48.111378,0.24254768,0.20943506,0.12932949,0.086887896,inf,inf,inf,inf,1,1,1,1,2,2,2,2,3,1,1,1,0,0,0
200323587,200320791,43973845,36.4533956,127.4065695,131.46901,-226.01689,-48.30019,-0.00019583842,0.0002981637,-4.5001507e-05,14.919084,12.294094,0.86307114,1.1170961,0.040229075,0.0045862254,0.07276097,4.1683025,-4.1794343,0.15714915,0.5995015,0.14188026,33.46734,47.996365,0.24061258,0.20788765,0.12930168,0.08565015,inf,inf,inf,inf,1,1,1,1,2,2,2,2,3,1,1,1,0,0,0
200421942,200420207,43973845,36.4533956,127.4065695,132.9469,-224.82661,-48.202652,-0.00019583842,0.0002981637,-4.5001507e-05,15.200286,11.967759,0.7394948,0.9836288,0.040229075,0.0045862254,0.07276097,4.4207,-4.229178,0.89096916,0.57579553,0.14188026,33.46734,47.898827,0.23876056,0.20638524,0.12914501,0.08456922,inf,inf,inf,inf,1,1,1,1,2,2,2,2,3,1,1,1,0,0,0
200521526,200519623,43973845,36.4533956,127.4065695,134.45311,-223.66649,-48.115223,-0.00019583842,0.0002981637,-4.5001507e-05,15.45599,11.665299,0.74875695,0.9810999,0.040229075,0.0045862254,0.07276097,3.8519077,-3.0650578,1.2877886,0.5544596,0.14188026,33.46734,47.811398,0.23693265,0.20488924,0.12888788,0.08362715,inf,inf,inf,inf,1,1,1,1,2,2,2,2,3,1,1,1,0,0,0
200620588,200619038,43973845,36.4533956,127.4065695,135.98528,-222.5357,-48.03485,-0.00019583842,0.0002981637,-4.5001507e-05,15.723196,11.283564,0.5739739,0.7947021,0.040229075,0.0045862254,0.07276097,2.5398495,-3.9706235,-1.4678562,0.5326884,0.14188026,33.46734,47.731026,0.23516813,0.20378084,0.12802067,0.08291224,inf,inf,inf,inf,1,1,1,1,2,2,2,2,3,1,1,1,0,0,0
200720025,200718454,43973845,36.4533956,127.4065695,137.54701,-221.44534,-47.97389,-0.00019583842,0.0002981637,-4.5001507e-05,15.993816,10.862483,0.38868326,0.5990487,0.040229075,0.0045862254,0.07276097,2.4437873,-4.0988154,-1.1232215,0.514905,0.14188026,33.46734,47.670063,0.24211735,0.20878261,0.13532144,0.08461772,inf,inf,inf,inf,1,1,1,1,2,2,2,2,3,1,1,1,0,0,0
200820525,200817869,43973845,36.4533956,127.4065695,139.12874,-220.40479,-47.93583,-0.00019583842,0.0002981637,-4.5001507e-05,16.228996,10.464208,0.24059807,0.43674177,0.040229075,0.0045862254,0.07276097,1.7891862,-2.089844,-1.5358294,0.49899575,0.14188026,33.46734,47.632004,0.24025579,0.20725644,0.1353329,0.083999574,inf,inf,inf,inf,1,1,1,1,2,2,2,2,3,1,1,1,0,0,0
200918814,200917285,43973845,36.4533956,127.4065695,140.73245,-219.4017,-47.91224,-0.00019583842,0.0002981637,-4.5001507e-05,16.404276,10.121871,0.14996018,0.32760948,0.040229075,0.0045862254,0.07276097,1.7469739,-4.2664566,-4.0229845,0.47941032,0.14188026,33.46734,47.608414,0.23845541,0.2057767,0.13494627,0.08348695,inf,inf,inf,inf,1,1,1,1,2,2,2,2,3,1,1,1,0,0,0
201029420,201026642,43973845,36.4533956,127.4065695,142.5172,-218.33664,-47.906017,-0.00019583842,0.0002981637,-4.5001507e-05,16.56375,9.760005,0.027577247,0.18373929,0.040229075,0.0045862254,0.07276097,1.7014611,-1.8420745,-0.07489576,0.45526552,0.14188026,33.46734,47.602192,0.23736273,0.20453385,0.13465442,0.083168775,inf,inf,inf,inf,1,1,1,1,2,2,2,2,3,1,1,1,0,0,0
201127626,201126058,43973845,36.4533956,127.4065695,144.15738,-217.3982,-47.902622,-0.00019583842,0.0002981637,-4.5001507e-05,16.703857,9.4656725,0.101104654,0.23897064,0.040229075,0.0045862254,0.07276097,1.9407531,-4.2562656,0.20803447,0.43361104,0.14188026,33.46734,47.598797,0.24465586,0.20984411,0.14147118,0.085159905,inf,inf,inf,inf,1,1,1,1,2,2,2,2,3,1,1,1,0,0,0
201227072,201225473,43973845,36.4533956,127.4065695,145.79933,-216.49077,-47.89012,-0.00019583842,0.0002981637,-4.5001507e-05,16.84819,9.152249,0.20313999,0.32329872,0.040229075,0.0045862254,0.07276097,1.0229915,-3.2823796,0.92749137,0.41070706,0.14188026,33.46734,47.586296,0.24254629,0.208231,0.13892041,0.084673665,inf,inf,inf,inf,1,1,1,1,2,2,2,2,3,1,1,1,0,0,0
201326483,201324896,43973845,36.4533956,127.4065695,147.45235,-215.62129,-47.881783,-0.00019583842,0.0002981637,-4.5001507e-05,16.975685,8.78836,0.081068195,0.18305166,0.040229075,0.0045862254,0.07276097,1.6664425,-4.45917,-2.7402985,0.38832238,0.14188026,33.46734,47.577957,0.2406955,0.20679648,0.13679442,0.08432231,inf,inf,inf,inf,1,1,1,1,2,2,2,2,3,1,1,1,0,0,0
201425942,201424304,43973845,36.4533956,127.4065695,149.12325,-214.78964,-47.88681,-0.00019583842,0.0002981637,-4.5001507e-05,17.083519,8.422712,-0.0132048,0.071209654,0.040229075,0.0045862254,0.07276097,0.29526335,-3.544606,-0.35790688,0.37051517,0.14188026,33.46734,47.582985,0.23889792,0.20541069,0.13568999,0.08401265,inf,inf,inf,inf,1,1,1,1,2,2,2,2,3,1,1,1,0,0,0
201525371,201523720,43973845,36.4533956,127.4065695,150.80762,-213.99239,-47.900455,-0.00019583842,0.0002981637,-4.5001507e-05,17.173992,8.096922,-0.04734817,0.02058595,0.040229075,0.0045862254,0.07276097,1.1595718,-4.2481747,-0.7274871,0.35625687,0.14188026,33.46734,47.59663,0.23710792,0.20403312,0.13426378,0.08369674,inf,inf,inf,inf,1,1,1,1,2,2,2,2,3,1,1,1,0,0,0
201624594,201623137,43973845,36.4533956,127.4065695,152.5036,-213.22658,-47.91211,-0.00019583842,0.0002981637,-4.5001507e-05,17.271843,7.7653174,-0.046985887,0.0055629816,0.040229075,0.0045862254,0.07276097,0.75956285,-3.3853247,-1.2360632,0.34231773,0.14188026,33.46734,47.608284,0.23532352,0.2026717,0.13241081,0.08334823,inf,inf,inf,inf,1,1,1,1,2,2,2,2,3,1,1,1,0,0,0
201725304,201722551,43973845,36.4533956,127.4065695,154.2099,-212.49379,-47.92736,-0.00019583842,0.0002981637,-4.5001507e-05,17.367098,7.429313,-0.0786881,-0.04100554,0.040229075,0.0045862254,0.07276097,1.3073623,-5.1961656,-2.12378,0.3269854,0.14188026,33.46734,47.623535,0.24254094,0.2075652,0.1383009,0.08540364,inf,inf,inf,inf,1,1,1,1,2,2,2,2,3,1,1,1,0,0,0
201823476,201821966,43973845,36.4533956,127.4065695,155.9264,-211.79523,-47.946354,-0.00019583842,0.0002981637,-4.5001507e-05,17.45319,7.1421356,0.0004811545,0.025048671,0.040229075,0.0045862254,0.07276097,0.95234793,-1.8336848,2.810599,0.30752805,0.14188026,33.46734,47.64253,0.24062479,0.20618072,0.13633676,0.085062176,inf,inf,inf,inf,1,1,1,1,2,2,2,2,3,1,1,1,0,0,0
201923000,201921381,43973845,36.4533956,127.4065695,157.6539,-211.12744,-47.963825,-0.00019583842,0.0002981637,-4.5001507e-05,17.531916,6.8083262,-0.17878003,-0.16534,0.040229075,0.0045862254,0.07276097,1.2296032,-4.6424756,-1.0067677,0.2793395,0.14188026,33.46734,47.66,0.23875822,0.20483097,0.13389015,0.08470017,inf,inf,inf,inf,1,1,1,1,2,2,2,2,3,1,1,1,0,0,0
202022213,202020797,43973845,36.4533956,127.4065695,159.39096,-210.49327,-47.999615,-0.00019583842,0.0002981637,-4.5001507e-05,17.61421,6.4637737,-0.34122074,-0.33566454,0.040229075,0.0045862254,0.07276097,1.1521543,-1.1823045,-0.5612272,0.2524913,0.14188026,33.46734,47.69579,0.23689142,0.20349479,0.13241391,0.08435262,inf,inf,inf,inf,1,1,1,1,2,2,2,2,3,1,1,1,0,0,0
202122091,202120212,43973845,36.4533956,127.4065695,161.13747,-209.89006,-48.043617,-0.00019583842,0.0002981637,-4.5001507e-05,17.703655,6.0926538,-0.46469706,-0.46416205,0.040229075,0.0045862254,0.07276097,2.2357247,-4.5042586,-2.3713405,0.22529353,0.14188026,33.46734,47.73979,0.24432398,0.20845485,0.1386429,0.08644903,inf,inf,inf,inf,1,1,1,1,2,2,2,2,3,1,1,1,0,0,0
202221344,202219627,43973845,36.4533956,127.4065695,162.88367,-209.32988,-48.104206,-0.00019583842,0.0002981637,-4.5001507e-05,17.79089,5.73007,-0.5420867,-0.54663736,0.040229075,0.0045862254,0.07276097,0.8654465,-3.1011205,-0.44806188,0.20231496,0.14188026,33.46734,47.80038,0.24208349,0.2069356,0.13646047,0.08600753,inf,inf,inf,inf,1,1,1,1,2,2,2,2,3,1,1,1,0,0,0
202320516,202319043,43973845,36.4533956,127.4065695,164.6359,-208.81003,-48.16506,-0.00019583842,0.0002981637,-4.5001507e-05,17.87532,5.3628263,-0.5739561,-0.58456534,0.040229075,0.0045862254,0.07276097,0.9037119,-3.440235,-1.9136912,0.18046495,0.14188026,33.46734,47.861233,0.24016492,0.2056218,0.13458516,0.085682206,inf,inf,inf,inf,1,1,1,1,2,2,2,2,3,1,1,1,0,0,0
202421075,202418458,43973845,36.4533956,127.4065695,166.40652,-208.32927,-48.23179,-0.00019583842,0.0002981637,-4.5001507e-05,17.944193,5.0317626,-0.63171095,-0.64656097,0.040229075,0.0045862254,0.07276097,1.6929394,-3.4651864,-0.31161097,0.16329506,0.14188026,33.46734,47.927963,0.2383096,0.20434408,0.13263428,0.08536285,inf,inf,inf,inf,1,1,1,1,2,2,2,2,3,1,1,1,0,0,0
202529365,202527815,43973845,36.4533956,127.4065695,168.36632,-207.83154,-48.31202,-0.00019583842,0.0002981637,-4.5001507e-05,17.988422,4.7154813,-0.765254,-0.7833288,0.040229075,0.0045862254,0.07276097,0.31924245,-2.6506944,-2.2961662,0.14363647,0.14188026,33.46734,48.008194,0.23718713,0.2036322,0.13114597,0.08519818,inf,inf,inf,inf,1,1,1,1,2,2,2,2,3,1,1,1,0,0,0
202618700,202617288,43973845,36.4533956,127.4065695,169.97464,-207.44536,-48.394978,-0.00019583842,0.0002981637,-4.5001507e-05,18.014595,4.476459,-0.9133155,-0.93384516,0.040229075,0.0045862254,0.07276097,0.45818812,-0.2649545,0.58534193,0.12911649,0.14188026,33.46734,48.091152,0.23469074,0.20182867,0.12876965,0.08456387,inf,inf,inf,inf,1,1,1,1,2,2,2,2,3,1,1,1,0,0,0
202728144,202726645,43973845,36.4533956,127.4065695,171.9491,-206.99423,-48.49723,-0.00019583842,0.0002981637,-4.5001507e-05,18.073753,4.236842,-0.7872342,-0.8113625,0.040229075,0.0045862254,0.07276097,0.56041783,-2.3752868,0.2678145,0.11402039,0.14188026,33.46734,48.193405,0.24275626,0.20737718,0.13484944,0.08684815,inf,inf,inf,inf,1,1,1,1,2,2,2,2,3,1,1,1,0,0,0
202817761,202816119,43973845,36.4533956,127.4065695,173.56311,-206.64375,-48.574013,-0.00019583842,0.0002981637,-4.5001507e-05,18.114302,4.0366073,-0.6876487,-0.72051746,0.040229075,0.0045862254,0.07276097,0.21927789,-1.8088636,0.82390267,0.10235774,0.14188026,33.46734,48.270187,0.24006034,0.2055318,0.13148522,0.08615217,inf,inf,inf,inf,1,1,1,1,2,2,2,2,3,1,1,1,0,0,0
202927047,202925476,43973845,36.4533956,127.4065695,175.5405,-206.23825,-48.663776,-0.00019583842,0.0002981637,-4.5001507e-05,18.149038,3.804355,-0.7282584,-0.7687755,0.040229075,0.0045862254,0.07276097,0.44944134,-0.29181904,-1.0922673,0.09175294,0.14188026,33.46734,48.35995,0.23892622,0.2048745,0.1292868,0.08589099,inf,inf,inf,inf,1,1,1,1,2,2,2,2,3,1,1,1,0,0,0
203026386,203024891,43973845,36.4533956,127.4065695,177.34195,-205.88492,-48.75197,-0.00019583842,0.0002981637,-4.5001507e-05,18.171907,3.6464171,-0.8157406,-0.86154276,0.040229075,0.0045862254,0.07276097,0.039522,-0.8881677,0.391482,0.08424489,0.14188026,33.46734,48.448143,0.23708133,0.20363985,0.12721409,0.08541356,inf,inf,inf,inf,1,1,1,1,2,2,2,2,3,1,1,1,0,0,0
203126925,203124306,43973845,36.4533956,127.4065695,179.14737,-205.53949,-48.83774,-0.00019583842,0.0002981637,-4.5001507e-05,18.203417,3.5342646,-0.68222475,-0.7307933,0.040229075,0.0045862254,0.07276097,-0.3630329,-0.39654654,3.290143,0.07362882,0.14188026,33.46734,48.533916,0.24454077,0.2087123,0.13206704,0.08738657,inf,inf,inf,inf,1,1,1,1,2,2,2,2,3,1,1,1,0,0,0
203225332,203223721,43973845,36.4533956,127.4065695,180.94531,-205.20374,-48.90925,-0.00019583842,0.0002981637,-4.5001507e-05,18.23253,3.4324563,-0.564647,-0.6178748,0.040229075,0.0045862254,0.07276097,1.0100856,-1.0976561,1.1805766,0.062561035,0.14188026,33.46734,48.605423,0.2423614,0.20732154,0.12897964,0.08673746,inf,inf,inf,inf,1,1,1,1,2,2,2,2,3,1,1,1,0,0,0
203324686,203323136,43973845,36.4533956,127.4065695,182.7407,-204.8687,-48.980175,-0.00019583842,0.0002981637,-4.5001507e-05,18.240332,3.3976336,-0.63995385,-0.69987553,0.040229075,0.0045862254,0.07276097,1.0639391,-1.7991657,-0.3306583,0.052056253,0.14188026,33.46734,48.67635,0.24041212,0.20605351,0.12638338,0.08617368,inf,inf,inf,inf,1,1,1,1,2,2,2,2,3,1,1,1,0,0,0
203423974,203422551,43973845,36.4533956,127.4065695,184.54167,-204.53795,-49.051643,-0.00019583842,0.0002981637,-4.5001507e-05,18.25255,3.3999078,-0.54623485,-0.60853785,0.040229075,0.0045862254,0.07276097,-0.23651113,-1.4505919,1.7563136,0.04281957,0.14188026,33.46734,48.747818,0.23853636,0.20482007,0.12439447,0.08558575,inf,inf,inf,inf,1,1,1,1,2,2,2,2,3,1,1,1,0,0,0
203523713,203521966,43973845,36.4533956,127.4065695,186.34721,-204.2035,-49.107296,-0.00019583842,0.0002981637,-4.5001507e-05,18.276222,3.4666114,-0.41833007,-0.48146752,0.040229075,0.0045862254,0.07276097,0.53423506,1.5389751,0.1870444,0.044541124,0.14188026,33.46734,48.80347,0.23664464,0.20355825,0.12189178,0.08494177,inf,inf,inf,inf,1,1,1,1,2,2,2,2,3,1,1,1,0,0,0
203624259,203621385,43973845,36.4533956,127.4065695,188.15454,-203.85455,-49.152752,-0.00019583842,0.0002981637,-4.5001507e-05,18.285372,3.6329875,-0.3119817,-0.37512594,0.040229075,0.0045862254,0.07276097,0.24682926,3.1984723,2.2560854,0.060745474,0.14188026,33.46734,48.848927,0.23482436,0.20233086,0.11940435,0.0842709,inf,inf,inf,inf,1,1,1,1,2,2,2,2,3,1,1,1,0,0,0
203722380,203720797,43973845,36.4533956,127.4065695,189.9696,-203.4868,-49.1801,-0.00019583842,0.0002981637,-4.5001507e-05,18.30839,3.9043834,-0.16867633,-0.22662671,0.040229075,0.0045862254,0.07276097,1.2367471,2.4116554,2.7640357,0.088072844,0.14188026,33.46734,48.876274,0.24193652,0.20735586,0.1229281,0.085981235,inf,inf,inf,inf,1,1,1,1,2,2,2,2,3,1,1,1,0,0,0
203822972,203820212,43973845,36.4533956,127.4065695,191.79062,-203.08333,-49.19269,-0.00019583842,0.0002981637,-4.5001507e-05,18.314386,4.3392673,-0.06071908,-0.11523288,0.040229075,0.0045862254,0.07276097,-0.38670444,6.9836884,-0.5661133,0.13554806,0.14188026,33.46734,48.888866,0.24002871,0.20610744,0.12032949,0.08514938,inf,inf,inf,inf,1,1,1,1,2,2,2,2,3,1,1,1,0,0,0
203921187,203919627,43973845,36.4533956,127.4065695,193.61118,-202.62051,-49.21169,-0.00019583842,0.0002981637,-4.5001507e-05,18.231611,5.079462,-0.30472815,-0.3553299,0.040229075,0.0045862254,0.07276097,-1.3845628,8.958776,-2.9976323,0.19765377,0.14188026,33.46734,48.907864,0.23820502,0.20524198,0.11795376,0.08432803,inf,inf,inf,inf,1,1,1,1,2,2,2,2,3,1,1,1,0,0,0
204020468,204019042,43973845,36.4533956,127.4065695,195.42047,-202.07794,-49.25536,-0.00019583842,0.0002981637,-4.5001507e-05,18.11013,5.8709764,-0.51673275,-0.56263983,0.040229075,0.0045862254,0.07276097,-1.4423009,8.790021,-1.2589731,0.25239164,0.14188026,33.46734,48.951534,0.23640442,0.20403446,0.116608866,0.08343266,inf,inf,inf,inf,1,1,1,1,2,2,2,2,3,1,1,1,0,0,0
204120090,204118459,43973845,36.4533956,127.4065695,197.2162,-201.45787,-49.308918,-0.00019583842,0.0002981637,-4.5001507e-05,17.980827,6.607925,-0.5589862,-0.59885573,0.040229075,0.0045862254,0.07276097,-1.458793,8.593353,0.66867846,0.30896494,0.14188026,33.46734,49.005093,0.24347834,0.20905788,0.12115204,0.08498674,inf,inf,inf,inf,1,1,1,1,2,2,2,2,3,1,1,1,0,0,0
204219630,204217872,43973845,36.4533956,127.4065695,198.9903,-200.76924,-49.360687,-0.00019583842,0.0002981637,-4.5001507e-05,17.797464,7.380466,-0.5543674,-0.58756477,0.040229075,0.0045862254,0.07276097,-2.8451495,9.482776,-0.07573824,0.37696052,0.14188026,33.46734,49.05686,0.2413966,0.207679,0.11979056,0.08423624,inf,inf,inf,inf,1,1,1,1,2,2,2,2,3,1,1,1,0,0,0
204318841,204317288,43973845,36.4533956,127.4065695,200.73381,-199.98349,-49.430634,-0.00019583842,0.0002981637,-4.5001507e-05,17.393349,8.474438,-0.82317024,-0.8555722,0.040229075,0.0045862254,0.07276097,-4.2076993,11.517062,-4.1041074,0.44349504,0.14188026,33.46734,49.12681,0.2395508,0.20645227,0.11892784,0.08368752,inf,inf,inf,inf,1,1,1,1,2,2,2,2,3,1,1,1,0,0,0
204428271,204426644,43973845,36.4533956,127.4065695,202.5983,-198.98596,-49.539143,-0.00019583842,0.0002981637,-4.5001507e-05,16.863045,9.672224,-1.0626227,-1.0952921,0.040229075,0.0045862254,0.07276097,-4.218652,9.893981,-1.4830287,0.4910524,0.14188026,33.46734,49.235317,0.2384298,0.2058027,0.12021904,0.08363622,inf,inf,inf,inf,1,1,1,1,2,2,2,2,3,1,1,1,0,0,0
204527598,204526059,43973845,36.4533956,127.4065695,204.2425,-197.97374,-49.65716,-0.00019583842,0.0002981637,-4.5001507e-05,16.379618,10.62071,-1.1890861,-1.2249112,0.040229075,0.0045862254,0.07276097,-4.6884193,9.295803,-2.1438658,0.53556824,0.14188026,33.46734,49.353336,0.23663089,0.20460376,0.12105276,0.08352816,inf,inf,inf,inf,1,1,1,1,2,2,2,2,3,1,1,1,0,0,0
204626994,204625475,43973845,36.4533956,127.4065695,205.83142,-196.86899,-49.796116,-0.00019583842,0.0002981637,-4.5001507e-05,15.840294,11.511459,-1.3835135,-1.4258972,0.040229075,0.0045862254,0.07276097,-6.9356823,9.990781,-2.6328573,0.58896834,0.14188026,33.46734,49.49229,0.23490404,0.20345096,0.12164115,0.08344906,inf,inf,inf,inf,1,1,1,1,2,2,2,2,3,1,1,1,0,0,0
204727413,204724896,43973845,36.4533956,127.4065695,207.35269,-195.67424,-49.96751,-0.00019583842,0.0002981637,-4.5001507e-05,15.153239,12.383775,-1.7565778,-1.8093278,0.040229075,0.0045862254,0.07276097,-7.3165054,8.047274,-2.4614735,0.63949317,0.14188026,33.46734,49.663685,0.24174778,0.20835015,0.1288877,0.085762136,inf,inf,inf,inf,1,1,1,1,2,2,2,2,3,1,1,1,0,0,0
204825960,204824305,43973845,36.4533956,127.4065695,208.80556,-194.40569,-50.168358,-0.00019583842,0.0002981637,-4.5001507e-05,14.616642,13.02601,-1.8502072,-1.914299,0.040229075,0.0045862254,0.07276097,-4.654567,6.3329997,0.9719183,0.6762526,0.14188026,33.46734,49.864532,0.23995988,0.20718752,0.13056037,0.08588515,inf,inf,inf,inf,1,1,1,1,2,2,2,2,3,1,1,1,0,0,0
204925254,204923721,43973845,36.4533956,127.4065695,210.2013,-193.08994,-50.371143,-0.00019583842,0.0002981637,-4.5001507e-05,14.111549,13.599742,-1.7472993,-1.8266704,0.040229075,0.0045862254,0.07276097,-5.8121495,6.7521067,1.4987551,0.7323651,0.14188026,33.46734,50.067318,0.23817568,0.20604633,0.13026467,0.08571587,inf,inf,inf,inf,1,1,1,1,2,2,2,2,3,1,1,1,0,0,0
205024738,205023136,43973845,36.4533956,127.4065695,211.53192,-191.71584,-50.574516,-0.00019583842,0.0002981637,-4.5001507e-05,13.368585,14.307622,-1.813786,-1.9138443,0.040229075,0.0045862254,0.07276097,-10.065847,8.009343,-3.3342636,0.81139237,0.14188026,33.46734,50.27069,0.236459,0.20494246,0.12911223,0.085464984,inf,inf,inf,inf,1,1,1,1,2,2,2,2,3,1,1,1,0,0,0
205123972,205122551,43973845,36.4533956,127.4065695,212.776,-190.26382,-50.7953,-0.00019583842,0.0002981637,-4.5001507e-05,12.4679,15.048263,-1.9997674,-2.1172752,0.040229075,0.0045862254,0.07276097,-7.18107,6.836979,-1.211269,0.87508297,0.14188026,33.46734,50.491474,0.24354835,0.20990494,0.13640726,0.08800099,inf,inf,inf,inf,1,1,1,1,2,2,2,2,3,1,1,1,0,0,0
205223561,205221967,43973845,36.4533956,127.4065695,213.93448,-188.7671,-51.029095,-0.00019583842,0.0002981637,-4.5001507e-05,11.578823,15.677834,-2.067183,-2.201581,0.040229075,0.0045862254,0.07276097,-9.786089,6.8197913,0.36543807,0.93353367,0.14188026,33.46734,50.72527,0.24154231,0.20867626,0.13659963,0.088165924,inf,inf,inf,inf,1,1,1,1,2,2,2,2,3,1,1,1,0,0,0
205323005,205321384,43973845,36.4533956,127.4065695,214.98886,-187.20732,-51.27833,-0.00019583842,0.0002981637,-4.5001507e-05,10.604283,16.273195,-2.1125767,-2.27137,0.040229075,0.0045862254,0.07276097,-8.4079895,5.823396,-0.86949426,0.99208975,0.14188026,33.46734,50.974506,0.23978421,0.20760155,0.1364402,0.088344,inf,inf,inf,inf,1,1,1,1,2,2,2,2,3,1,1,1,0,0,0
205422259,205420797,43973845,36.4533956,127.4065695,215.94821,-185.59267,-51.526394,-0.00019583842,0.0002981637,-4.5001507e-05,9.671909,16.764359,-2.0760255,-2.2562666,0.040229075,0.0045862254,0.07276097,-10.179214,5.595412,-0.8439396,1.0393585,0.14188026,33.46734,51.22257,0.2380141,0.20652689,0.13600558,0.08852583,inf,inf,inf,inf,1,1,1,1,2,2,2,2,3,1,1,1,0,0,0
205521794,205520213,43973845,36.4533956,127.4065695,216.80724,-183.93756,-51.78091,-0.00019583842,0.0002981637,-4.5001507e-05,8.694933,17.164234,-2.1940217,-2.3923771,0.040229075,0.0045862254,0.07276097,-8.841994,3.9442894,-0.06454649,1.0724925,0.14188026,33.46734,51.477085,0.2362942,0.20548728,0.13487428,0.088540494,inf,inf,inf,inf,1,1,1,1,2,2,2,2,3,1,1,1,0,0,0
205621431,205619628,43973845,36.4533956,127.4065695,217.58392,-182.25507,-52.031292,-0.00019583842,0.0002981637,-4.5001507e-05,7.979231,17.393827,-2.1057324,-2.316089,0.040229075,0.0045862254,0.07276097,-7.144511,2.7967348,1.71487,1.0988654,0.14188026,33.46734,51.727467,0.23457867,0.20444544,0.13385007,0.08849658,inf,inf,inf,inf,1,1,1,1,2,2,2,2,3,1,1,1,0,0,0
205721605,205719043,43973845,36.4533956,127.4065695,218.29117,-180.55255,-52.27215,-0.00019583842,0.0002981637,-4.5001507e-05,7.344324,17.535795,-2.0313993,-2.2486567,0.040229075,0.0045862254,0.07276097,-0.384819,-0.37637156,4.012165,1.1154805,0.14188026,33.46734,51.968323,0.24172123,0.20948036,0.13942495,0.09080463,inf,inf,inf,inf,1,1,1,1,2,2,2,2,3,1,1,1,0,0,0
205829905,205828400,43973845,36.4533956,127.4065695,219.03198,-178.67613,-52.49307,-0.00019583842,0.0002981637,-4.5001507e-05,7.132426,17.515306,-1.338431,-1.5660088,0.040229075,0.0045862254,0.07276097,-2.6013973,1.0530268,6.565292,1.164359,0.14188026,33.46734,52.189243,0.24065174,0.20901565,0.13670404,0.09032508,inf,inf,inf,inf,1,1,1,1,2,2,2,2,3,1,1,1,0,0,0
205919469,205917874,43973845,36.4533956,127.4065695,219.6184,-177.1248,-52.63064,-0.00019583842,0.0002981637,-4.5001507e-05,6.5757527,17.63518,-1.1297108,-1.3653245,0.040229075,0.0045862254,0.07276097,-9.353816,2.2198849,0.15610972,1.2186661,0.14188026,33.46734,52.326813,0.2381141,0.2073662,0.13105477,0.08883817,inf,inf,inf,inf,1,1,1,1,2,2,2,2,3,1,1,1,0,0,0
206028883,206027231,43973845,36.4533956,127.4065695,220.26666,-175.20518,-52.788227,-0.00019583842,0.0002981637,-4.5001507e-05,5.6963534,17.799503,-1.164393,-1.3989546,0.040229075,0.0045862254,0.07276097,-5.821363,1.1441758,0.49862733,1.2485365,0.14188026,33.46734,52.4844,0.23703282,0.20686711,0.12883377,0.08847174,inf,inf,inf,inf,1,1,1,1,2,2,2,2,3,1,1,1,0,0,0
206118331,206116705,43973845,36.4533956,127.4065695,220.75296,-173.6208,-52.89486,-0.00019583842,0.0002981637,-4.5001507e-05,5.267774,17.87936,-0.84748423,-1.0733533,0.040229075,0.0045862254,0.07276097,-5.170052,1.0379933,5.433667,1.2653718,0.14188026,33.46734,52.591034,0.2436015,0.21141459,0.13404626,0.09072045,inf,inf,inf,inf,1,1,1,1,2,2,2,2,3,1,1,1,0,0,0
206227565,206226062,43973845,36.4533956,127.4065695,221.29967,-171.66971,-52.987568,-0.00019583842,0.0002981637,-4.5001507e-05,4.583783,18.028631,-0.70010877,-0.9130222,0.040229075,0.0045862254,0.07276097,-8.675066,1.6473955,-2.6905322,1.3140357,0.14188026,33.46734,52.683743,0.24227838,0.21080106,0.13096143,0.09013979,inf,inf,inf,inf,1,1,1,1,2,2,2,2,3,1,1,1,0,0,0
