timestamp,timestamp_sample,ref_timestamp,ref_lat,ref_lon,x,y,z,delta_xy[0],delta_xy[1],delta_z,vx,vy,vz,z_deriv,delta_vxy[0],delta_vxy[1],delta_vz,ax,ay,az,heading,delta_heading,ref_alt,dist_bottom,eph,epv,evh,evv,vxy_max,vz_max,hagl_min,hagl_max,xy_valid,z_valid,v_xy_valid,v_z_valid,xy_reset_counter,z_reset_counter,vxy_reset_counter,vz_reset_counter,heading_reset_counter,heading_good_for_control,xy_global,z_global,dist_bottom_valid,dist_bottom_sensor_bitfield
21726772000,21726772000,1036000,41.606704,-86.3556021,-0.66748047,-1.1549984,0.13121532,0.000492924,0.00010286037,0.0,-0.004585002,-0.004605772,-0.0015434603,-0.0018898376,-0.00020228348,-0.002365633,0.0030725298,-0.042944677,0.024416035,0.011258695,-1.0674775,0.06438232,229.40294,0.100249276,0.04909226,0.05537485,0.012848633,0.009192896,inf,inf,inf,inf,1,1,1,1,2,0,2,1,47,0,1,1,1,0
21727268000,21727268000,1036000,41.606704,-86.3556021,-0.6664823,-1.1552268,0.13128863,0.000492924,0.00010286037,0.0,-0.0032099825,-0.0018001582,-0.0015709061,-0.0014811433,-0.00020228348,-0.002365633,0.0030725298,-0.00969054,0.02137723,-0.0934173,-1.0673441,0.06438232,229.40294,0.10021703,0.04905906,0.055337794,0.018450126,0.01333856,inf,inf,inf,inf,1,1,1,1,2,0,2,1,47,0,1,1,1,0
21727772000,21727772000,1036000,41.606704,-86.3556021,-0.66622305,-1.1552564,0.13174123,0.000492924,0.00010286037,0.0,-0.003001163,-0.0026397093,-0.000412409,-2.8454762e-05,-0.00020228348,-0.002365633,0.0030725298,0.011219673,0.0026426166,-0.039804786,-1.0672677,0.06438232,229.40294,0.100031406,0.049050562,0.055291075,0.009055046,0.006442423,inf,inf,inf,inf,1,1,1,1,2,0,2,1,47,0,1,1,1,0
21728268000,21728268000,1036000,41.606704,-86.3556021,-0.6658536,-1.1543205,0.13194254,0.000492924,0.00010286037,0.0,-0.0017417977,-0.0011606872,-0.00043369737,-0.00017882351,-0.00020228348,-0.002365633,0.0030725298,-0.0226782,-0.08247389,-0.0070529687,-1.0672865,0.06438232,229.40294,0.1,0.04900456,0.05524816,0.01585045,0.011401013,inf,inf,inf,inf,1,1,1,1,2,0,2,1,47,0,1,1,1,0
21728772000,21728772000,1036000,41.606704,-86.3556021,-0.6663383,-1.1549917,0.13191989,0.000492924,0.00010286037,0.0,-0.005473862,-0.0043007345,-0.0009553607,-0.0008400036,-0.00020228348,-0.002365633,0.0030725298,-0.022467453,-0.07327857,0.025176378,-1.0672549,0.06438232,229.40294,0.1,0.048982196,0.055202115,0.0014142136,0.001,inf,inf,inf,inf,1,1,1,1,2,0,2,1,47,0,1,1,1,0
21729268000,21729268000,1036000,41.606704,-86.3556021,-0.66603464,-1.1547828,0.13268495,0.000492924,0.00010286037,0.0,-0.00050874526,-0.0025793477,0.0014640574,0.0013230351,-0.00020228348,-0.002365633,0.0030725298,-0.037315767,0.043432806,0.019828724,-1.0674317,0.06438232,229.40294,0.1,0.048958458,0.05516288,0.012848494,0.0091928085,inf,inf,inf,inf,1,1,1,1,2,0,2,1,47,0,1,1,1,0
21729772000,21729772000,1036000,41.606704,-86.3556021,-0.66576475,-1.1549312,0.13208623,0.000492924,0.00010286037,0.0,-0.0007749587,-0.0050358195,-0.0020343838,-0.0025263352,-0.00020228348,-0.002365633,0.0030725298,0.0596567,0.028026685,-0.048718475,-1.0675828,0.06438232,229.40294,0.1,0.048959855,0.055135556,0.018950794,0.013708246,inf,inf,inf,inf,1,1,1,1,2,0,2,1,47,0,1,1,1,0
21730268000,21730268000,1036000,41.606704,-86.3556021,-0.6649226,-1.1552485,0.13051887,0.000492924,0.00010286037,0.0,0.0019646569,-0.0024908604,-0.0015430455,-0.0012414936,-0.00020228348,-0.002365633,0.0030725298,0.09878841,-0.046137463,-0.010936583,-1.0676124,0.06438232,229.40294,0.10086967,0.048917845,0.055087376,0.00905607,0.0064424193,inf,inf,inf,inf,1,1,1,1,2,0,2,1,47,0,1,1,1,0
21730772000,21730772000,1036000,41.606704,-86.3556021,-0.6644188,-1.1530975,0.13055857,0.000492924,0.00010286037,0.0,0.0031932604,0.0010297006,-0.00092595635,-0.00057309656,-0.00020228348,-0.002365633,0.0030725298,-0.023869168,-0.013398945,0.23269367,-1.0673112,0.06438232,229.40294,0.100333616,0.048904277,0.055046376,0.016402736,0.011807385,inf,inf,inf,inf,1,1,1,1,2,0,2,1,47,0,1,1,1,0
21731268000,21731268000,1036000,41.606704,-86.3556021,-0.6641858,-1.1539589,0.13130973,0.000492924,0.00010286037,0.0,0.0051018344,-0.0014828602,0.0031304462,0.003388822,-0.00020228348,-0.002365633,0.0030725298,-0.07053062,-0.045240417,-0.29671103,-1.0673333,0.06438232,229.40294,0.1,0.048850738,0.054999914,0.0014142136,0.001,inf,inf,inf,inf,1,1,1,1,2,0,2,1,47,0,1,1,1,0
21731772000,21731772000,1036000,41.606704,-86.3556021,-0.664874,-1.1543016,0.13097715,0.000492924,0.00010286037,0.0,0.00015956654,0.0006074675,-0.0026166101,-0.0028064884,-0.00020228348,-0.002365633,0.0030725298,0.05515501,0.037848394,-0.32020363,-1.067617,0.06438232,229.40294,0.1,0.048857745,0.05495508,0.013494527,0.009664894,inf,inf,inf,inf,1,1,1,1,2,0,2,1,47,0,1,1,1,0
21732268000,21732268000,1036000,41.606704,-86.3556021,-0.6657428,-1.1523825,0.13170181,0.000492924,0.00010286037,0.0,0.0011953448,0.0050774366,0.0060973284,0.006051122,-0.00020228348,-0.002365633,0.0030725298,-0.049417432,0.101761624,0.27767095,-1.0680152,0.06438232,229.40294,0.1,0.04882946,0.05492796,0.018936742,0.013705072,inf,inf,inf,inf,1,1,1,1,2,0,2,1,47,0,1,1,1,0
21732772000,21732772000,1036000,41.606704,-86.3556021,-0.66698915,-1.1518644,0.13318954,0.000492924,0.00010286037,0.0,-0.003784508,0.0056775687,0.009034056,0.0071506584,-0.00020228348,-0.002365633,0.0030725298,0.0017311671,0.011220869,-0.12583663,-1.0673742,0.06438232,229.40294,0.1,0.04878824,0.054873828,0.0099185575,0.0070644007,inf,inf,inf,inf,1,1,1,1,2,0,2,1,47,0,1,1,1,0
21733268000,21733268000,1036000,41.606704,-86.3556021,-0.6664602,-1.1519707,0.13288291,0.000492924,0.00010286037,0.0,0.00011356929,0.0044096443,0.0071879206,0.0045082523,-0.00020228348,-0.002365633,0.0030725298,0.08109181,-0.0059266393,-0.6332351,-1.0669787,0.06438232,229.40294,0.1,0.04901903,0.054958567,0.02777893,0.020451277,inf,inf,inf,inf,1,1,1,1,2,0,2,1,47,0,1,1,1,0
21733772000,21733772000,1036000,41.606704,-86.3556021,-0.66630596,-1.1495711,0.13642494,0.000492924,0.00010286037,0.0,0.00050067593,0.009347706,0.014677946,0.01305419,-0.00020228348,-0.002365633,0.0030725298,-0.019259624,-0.0011646159,-0.07236569,-1.065314,0.06438232,229.40294,0.1,0.053552326,0.05730871,0.048824027,0.03695956,inf,inf,inf,inf,1,1,1,1,2,0,2,1,47,0,1,1,1,0
21734268000,21734268000,1036000,41.606704,-86.3556021,-0.673068,-1.1429492,0.09834266,0.000492924,0.00010286037,0.0,-0.030956514,0.017722504,-0.3949739,-0.3958267,-0.00020228348,-0.002365633,0.0030725298,-0.10632096,0.014079753,-2.1969852,-1.067208,0.06438232,229.40294,0.14137074,0.0681791,0.06590985,0.06810472,0.051483415,inf,inf,inf,inf,1,1,1,1,2,0,2,1,47,0,1,1,1,0
21734772000,21734772000,1036000,41.606704,-86.3556021,-0.6888153,-1.1367209,-0.3586167,0.000492924,0.00010286037,0.0,-0.019761061,0.003100998,-1.4114211,-1.4105865,-0.00020228348,-0.002365633,0.0030725298,0.15786107,0.036198553,-2.2361388,-1.0668093,0.06438232,229.40294,0.59833014,0.09500031,0.083549514,0.08879535,0.06507959,inf,inf,inf,inf,1,1,1,1,2,0,2,1,47,0,1,1,1,0
21735268000,21735268000,1036000,41.606704,-86.3556021,-0.69259495,-1.140068,-1.0715234,0.000492924,0.00010286037,0.0,-0.0014489226,-0.0126711,-1.1923032,-1.1905857,-0.00020228348,-0.002365633,0.0030725298,0.023134235,0.030578207,1.2280166,-1.0665638,0.06438232,229.40294,1.3112369,0.12714963,0.107994996,0.1012221,0.076313235,inf,inf,inf,inf,1,1,1,1,2,0,2,1,47,0,1,1,1,0
21735772000,21735772000,1036000,41.606704,-86.3556021,-0.68889445,-1.1482263,-1.5434395,0.000492924,0.00010286037,0.0,0.0034906443,-0.0119720595,-0.70936817,-0.71130896,-0.00020228348,-0.002365633,0.0030725298,-0.041878894,-0.0011077715,0.7471944,-1.0047729,0.0739513,229.40294,1.7831529,0.16953276,0.14075053,0.111312866,0.08849435,inf,inf,inf,inf,1,1,1,1,2,0,2,1,48,0,1,1,1,0
21736268000,21736268000,1036000,41.606704,-86.3556021,-0.6815054,-1.157197,-1.8307132,0.000492924,0.00010286037,0.0,0.0021989099,-0.008601762,-0.42803332,-0.43768364,-0.00020228348,-0.002365633,0.0030725298,-0.017577678,-0.05040154,0.5106515,-1.0270861,0.0739513,229.40294,2.0704265,0.19805376,0.1721002,0.1138456,0.09556312,inf,inf,inf,inf,1,1,1,1,2,0,2,1,48,0,1,1,1,0
21736772000,21736772000,1036000,41.606704,-86.3556021,-0.67184263,-1.1597986,-2.0105848,0.000492924,0.00010286037,0.0,0.0007331703,-0.0031295898,-0.26193047,-0.27590573,-0.00020228348,-0.002365633,0.0030725298,-0.010591679,0.030214729,0.28494364,-1.0394143,0.0739513,229.40294,2.2502983,0.22980887,0.20738575,0.12931974,0.1030303,inf,inf,inf,inf,1,1,1,1,2,0,2,1,48,1,1,1,1,0
21737268000,21737268000,1036000,41.606704,-86.3556021,-0.67012966,-1.1603543,-2.1234424,0.000492924,0.00010286037,0.0,-0.00960961,-0.0021239496,-0.16102655,-0.1774136,-0.00020228348,-0.002365633,0.0030725298,-0.009445805,-0.003991806,0.07880659,-1.0441309,0.0739513,229.40294,2.3631558,0.25736195,0.24033013,0.14341886,0.10809921,inf,inf,inf,inf,1,1,1,1,2,0,2,1,48,1,1,1,1,0
21737772000,21737772000,1036000,41.606704,-86.3556021,-0.6676068,-1.161237,-2.1269832,0.000492924,0.00010286037,0.0,-0.005634745,-0.004442959,0.08858551,0.07441018,-0.00020228348,-0.002365633,0.0030725298,0.0048336238,0.027348306,-0.28052557,-1.0475136,0.0739513,229.40294,2.3666966,0.2833966,0.27181366,0.15496832,0.11192662,inf,inf,inf,inf,1,1,1,1,2,0,2,1,48,1,1,1,1,0
21738268000,21738268000,1036000,41.606704,-86.3556021,-0.6673515,-1.1455103,-2.1337817,0.000492924,0.00010286037,0.0,-0.00930192,0.079008356,-0.1360209,-0.14919525,-0.00020228348,-0.002365633,0.0030725298,-0.033224013,0.4534573,-1.2573023,-1.0521581,0.0739513,229.40294,2.373495,0.3050624,0.30008388,0.1624744,0.11441366,inf,inf,inf,inf,1,1,1,1,2,0,2,1,48,1,1,1,0,0
21738772000,21738772000,1036000,41.606704,-86.3556021,-0.6678726,-1.0093284,-2.2825756,0.000492924,0.00010286037,0.0,-0.009122794,0.5278181,-0.4390466,-0.44758523,-0.00020228348,-0.002365633,0.0030725298,-0.057350174,1.2967584,-0.5472191,-1.0511755,0.0739513,229.40294,2.522289,0.32405427,0.32575917,0.16709723,0.11601043,inf,inf,inf,inf,1,1,1,1,2,0,2,1,48,1,1,1,0,0
21739268000,21739268000,1036000,41.606704,-86.3556021,-0.66166055,-0.56168467,-2.5672207,0.000492924,0.00010286037,0.0,-0.116159685,1.3307663,-0.74195457,-0.75728166,-0.00020228348,-0.002365633,0.0030725298,-0.95800316,2.2845972,-2.2256951,-1.0473882,0.0739513,229.40294,2.806934,0.32078153,0.33729997,0.1573767,0.11273735,inf,inf,inf,inf,1,1,1,1,2,0,2,1,48,1,1,1,0,0
21739772000,21739772000,1036000,41.606704,-86.3556021,-0.92072815,0.36720687,-3.1692274,0.000492924,0.00010286037,0.0,-1.0391597,2.2990556,-1.5937561,-1.6035786,-0.00020228348,-0.002365633,0.0030725298,-1.3849353,1.4384618,-1.6202228,-1.0510968,0.0739513,229.40294,3.4089408,0.3540032,0.36487854,0.18094873,0.11674004,inf,inf,inf,inf,1,1,1,1,2,0,2,1,48,1,1,1,0,0
21740268000,21740268000,1036000,41.606704,-86.3556021,-1.4992461,1.6714938,-4.136728,0.000492924,0.00010286037,0.0,-1.485343,2.8473663,-2.3526955,-2.3463583,-0.00020228348,-0.002365633,0.0030725298,-0.6458956,0.8883651,-1.641959,-1.054021,0.0739513,229.40294,4.376441,0.34191692,0.36907685,0.16424698,0.112546384,inf,inf,inf,inf,1,1,1,1,2,0,2,1,48,1,1,1,0,0
21740772000,21740772000,1036000,41.606704,-86.3556021,-2.2786777,3.2394853,-5.4845133,0.000492924,0.00010286037,0.0,-1.7294215,3.2297497,-3.0184348,-3.0072634,-0.00020228348,-0.002365633,0.0030725298,-0.278493,0.72260803,-0.9817789,-1.0526632,0.0739513,229.40294,5.7242265,0.37427613,0.3887442,0.1761414,0.11606189,inf,inf,inf,inf,1,1,1,1,2,0,2,1,48,1,1,1,0,0
21741268000,21741268000,1036000,41.606704,-86.3556021,-3.1669774,4.962217,-7.101015,0.000492924,0.00010286037,0.0,-1.9068117,3.53847,-3.5371804,-3.5208454,-0.00020228348,-0.002365633,0.0030725298,-0.33166882,0.50507265,-0.9088786,-1.0522734,0.0739513,229.40294,7.3407283,0.35631838,0.390302,0.15533824,0.11245264,inf,inf,inf,inf,1,1,1,1,2,0,2,1,48,1,1,1,0,0
21741772000,21741772000,1036000,41.606704,-86.3556021,-4.1655087,6.8514667,-8.983897,0.000492924,0.00010286037,0.0,-2.0661938,3.8004668,-3.9558294,-3.9398978,-0.00020228348,-0.002365633,0.0030725298,-0.30181456,0.4106286,-0.764017,-1.0509635,0.0739513,229.40294,9.223611,0.3630188,0.39959952,0.15264052,0.11310871,inf,inf,inf,inf,1,1,1,1,2,0,2,1,48,1,1,1,0,0
21742268000,21742268000,1036000,41.606704,-86.3556021,-5.225743,8.812819,-11.03542,0.000492924,0.00010286037,0.0,-2.192511,4.011719,-4.2889843,-4.284075,-0.00020228348,-0.002365633,0.0030725298,-0.24491175,0.37753266,-0.5500568,-1.0500066,0.0739513,229.40294,11.275134,0.36747557,0.40401855,0.14986221,0.11323369,inf,inf,inf,inf,1,1,1,1,2,0,2,1,48,1,1,1,0,0
21742772000,21742772000,1036000,41.606704,-86.3556021,-6.3705006,10.908836,-13.275731,0.000492924,0.00010286037,0.0,-2.3166459,4.1910367,-4.56191,-4.5660133,-0.00020228348,-0.002365633,0.0030725298,-0.2297807,0.2497575,-0.5494086,-1.0497186,0.0739513,229.40294,13.515445,0.3717636,0.4077164,0.14838444,0.1136612,inf,inf,inf,inf,1,1,1,1,2,0,2,1,48,1,1,1,0,0
21743268000,21743268000,1036000,41.606704,-86.3556021,-7.5453625,13.045999,-15.604683,0.000492924,0.00010286037,0.0,-2.406277,4.340551,-4.772652,-4.7843084,-0.00020228348,-0.002365633,0.0030725298,-0.2962752,0.24457248,-0.48479253,-1.0494266,0.0739513,229.40294,15.844397,0.37564552,0.41264808,0.1483186,0.11463019,inf,inf,inf,inf,1,1,1,1,2,0,2,1,48,1,1,1,0,0
21743772000,21743772000,1036000,41.606704,-86.3556021,-8.779561,15.287574,-18.065262,0.000492924,0.00010286037,0.0,-2.4795897,4.4653087,-4.9465117,-4.9587708,-0.00020228348,-0.002365633,0.0030725298,-0.07293994,-0.1497161,0.40871456,-1.0494559,0.0739513,229.40294,18.304976,0.37807727,0.41444278,0.14784272,0.11510924,inf,inf,inf,inf,1,1,1,1,2,0,2,1,48,1,1,1,0,0
21744268000,21744268000,1036000,41.606704,-86.3556021,-10.034451,17.552126,-20.566042,0.000492924,0.00010286037,0.0,-2.5361147,4.5761766,-5.0841465,-5.1017184,-0.00020228348,-0.002365633,0.0030725298,-0.051686354,0.279722,-0.24469852,-1.049324,0.0739513,229.40294,20.805756,0.36008286,0.40878847,0.1389026,0.112061046,inf,inf,inf,inf,1,1,1,1,2,0,2,1,48,1,1,1,0,0
21744772000,21744772000,1036000,41.606704,-86.3556021,-11.338362,19.906729,-23.173105,0.000492924,0.00010286037,0.0,-2.5922723,4.674947,-5.1979065,-5.2189827,-0.00020228348,-0.002365633,0.0030725298,-0.11386832,0.086312346,-0.1431555,-1.0496186,0.0739513,229.40294,23.412819,0.3847029,0.4192173,0.1512744,0.11699423,inf,inf,inf,inf,1,1,1,1,2,0,2,1,48,1,1,1,0,0
21745268000,21745268000,1036000,41.606704,-86.3556021,-12.653355,22.266144,-25.782393,0.000492924,0.00010286037,0.0,-2.6401772,4.757263,-5.2840824,-5.3036327,-0.00020228348,-0.002365633,0.0030725298,-0.013666792,0.11468907,-0.19260222,-1.0497029,0.0739513,229.40294,26.022106,0.36484036,0.4126942,0.1416079,0.1135641,inf,inf,inf,inf,1,1,1,1,2,0,2,1,48,1,1,1,0,0
21745772000,21745772000,1036000,41.606704,-86.3556021,-14.014609,24.697046,-28.471174,0.000492924,0.00010286037,0.0,-2.6870463,4.8253303,-5.360042,-5.3752046,-0.00020228348,-0.002365633,0.0030725298,-0.07598648,0.09582258,-0.16318919,-1.0498251,0.0739513,229.40294,28.710888,0.3681016,0.41599864,0.14390083,0.11462718,inf,inf,inf,inf,1,1,1,1,2,0,2,1,48,1,1,1,0,0
21746268000,21746268000,1036000,41.606704,-86.3556021,-15.372995,27.121506,-31.140945,0.000492924,0.00010286037,0.0,-2.7253768,4.8807545,-5.4116187,-5.4188666,-0.00020228348,-0.002365633,0.0030725298,-0.1931349,0.056909584,-0.17273897,-1.0495875,0.0739513,229.40294,31.38066,0.36918542,0.4153256,0.14424883,0.11472957,inf,inf,inf,inf,1,1,1,1,2,0,2,1,48,1,1,1,0,0
21746772000,21746772000,1036000,41.606704,-86.3556021,-16.777752,29.618692,-33.887943,0.000492924,0.00010286037,0.0,-2.7582822,4.930861,-5.4629536,-5.471551,-0.00020228348,-0.002365633,0.0030725298,-0.042047687,0.14874673,-0.20915833,-1.0491571,0.0739513,229.40294,34.127655,0.37195122,0.41814792,0.14600284,0.115494594,inf,inf,inf,inf,1,1,1,1,2,0,2,1,48,1,1,1,0,0
21747268000,21747268000,1036000,41.606704,-86.3556021,-18.173967,32.10302,-36.61946,0.000492924,0.00010286037,0.0,-2.7808514,4.982888,-5.5142922,-5.526433,-0.00020228348,-0.002365633,0.0030725298,-0.07917759,0.04353578,-0.06543199,-1.0491045,0.0739513,229.40294,36.859173,0.37496832,0.41741347,0.14813848,0.115826376,inf,inf,inf,inf,1,1,1,1,2,0,2,1,48,1,1,1,0,0
21747772000,21747772000,1036000,41.606704,-86.3556021,-19.603472,34.649384,-39.41317,0.000492924,0.00010286037,0.0,-2.8049753,5.023701,-5.551764,-5.560452,-0.00020228348,-0.002365633,0.0030725298,0.013961292,0.052563522,-0.035204053,-1.0486866,0.0739513,229.40294,39.65288,0.37702754,0.417041,0.14883964,0.115919694,inf,inf,inf,inf,1,1,1,1,2,0,2,1,48,1,1,1,0,0
21748268000,21748268000,1036000,41.606704,-86.3556021,-21.028728,37.16868,-42.177254,0.000492924,0.00010286037,0.0,-2.8236134,5.0556283,-5.5895376,-5.5953927,-0.00020228348,-0.002365633,0.0030725298,-0.039532557,-0.015275254,-0.016192969,-1.0491375,0.0739513,229.40294,42.416965,0.35932875,0.41343,0.14012851,0.11266338,inf,inf,inf,inf,1,1,1,1,2,0,2,1,48,1,1,1,0,0
21748764000,21748764000,1036000,41.606704,-86.3556021,-22.459507,39.69653,-44.945286,0.000492924,0.00010286037,0.0,-2.8425555,5.0794806,-5.612968,-5.6078596,-0.00020228348,-0.002365633,0.0030725298,0.017588956,0.0009697779,-0.0419133,-1.0489854,0.0739513,229.40294,45.184998,0.38143525,0.4182063,0.15095593,0.11624729,inf,inf,inf,inf,1,1,1,1,2,0,2,1,48,1,1,1,0,0
21749268000,21749268000,1036000,41.606704,-86.3556021,-23.930605,42.287327,-47.76316,0.000492924,0.00010286037,0.0,-2.8637621,5.1059237,-5.635317,-5.6201415,-0.00020228348,-0.002365633,0.0030725298,0.008294357,0.08026098,-0.15417491,-1.0485247,0.0739513,229.40294,48.002872,0.3630628,0.4148537,0.14157575,0.11287221,inf,inf,inf,inf,1,1,1,1,2,0,2,1,48,1,1,1,0,0
21749772000,21749772000,1036000,41.606704,-86.3556021,-25.405146,44.898525,-50.58887,0.000492924,0.00010286037,0.0,-2.876028,5.133116,-5.6460323,-5.6234813,-0.00020228348,-0.002365633,0.0030725298,-0.0053328373,0.046201337,-0.17275573,-1.0484517,0.0739513,229.40294,50.828583,0.36662054,0.4145165,0.14370993,0.11309131,inf,inf,inf,inf,1,1,1,1,2,0,2,1,48,1,1,1,0,0
21750268000,21750268000,1036000,41.606704,-86.3556021,-26.856438,47.46742,-53.38495,0.000492924,0.00010286037,0.0,-2.8921936,5.155381,-5.662345,-5.6418276,-0.00020228348,-0.002365633,0.0030725298,-0.1602994,0.30746657,-0.57290494,-1.048504,0.0739513,229.40294,53.62466,0.36788747,0.4163294,0.14375542,0.11312453,inf,inf,inf,inf,1,1,1,1,2,0,2,1,48,1,1,1,0,0
21750772000,21750772000,1036000,41.606704,-86.3556021,-28.342796,50.091187,-56.21725,0.000492924,0.00010286037,0.0,-2.9038801,5.1798706,-5.6635003,-5.6351995,-0.00020228348,-0.002365633,0.0030725298,-0.10250092,0.01560883,0.043067086,-1.0484781,0.0739513,229.40294,56.456963,0.37084293,0.4158386,0.14514549,0.11312693,inf,inf,inf,inf,1,1,1,1,2,0,2,1,48,1,1,1,0,0
21751268000,21751268000,1036000,41.606704,-86.3556021,-29.802193,52.679363,-59.01906,0.000492924,0.00010286037,0.0,-2.9144666,5.1971316,-5.664646,-5.642466,-0.00020228348,-0.002365633,0.0030725298,-0.06767598,0.028264547,-0.00048993883,-1.0492357,0.0739513,229.40294,59.25877,0.37275386,0.41761097,0.14574096,0.11321251,inf,inf,inf,inf,1,1,1,1,2,0,2,1,48,1,1,1,0,0
21751772000,21751772000,1036000,41.606704,-86.3556021,-31.29144,55.313843,-61.864277,0.000492924,0.00010286037,0.0,-2.9245567,5.210587,-5.6649203,-5.6447954,-0.00020228348,-0.002365633,0.0030725298,0.0131537495,0.0032429886,0.037522923,-1.0491452,0.0739513,229.40294,62.10399,0.37516338,0.41984862,0.1465914,0.11338289,inf,inf,inf,inf,1,1,1,1,2,0,2,1,48,1,1,1,0,0
21752268000,21752268000,1036000,41.606704,-86.3556021,-32.76132,57.91339,-64.67081,0.000492924,0.00010286037,0.0,-2.9391174,5.221783,-5.6665664,-5.652476,-0.00020228348,-0.002365633,0.0030725298,-0.095797345,0.06371756,-0.056387916,-1.0488312,0.0739513,229.40294,64.91052,0.35799834,0.41306606,0.13829489,0.109800674,inf,inf,inf,inf,1,1,1,1,2,0,2,1,48,1,1,1,0,0
21752772000,21752772000,1036000,41.606704,-86.3556021,-34.2552,60.55742,-67.52326,0.000492924,0.00010286037,0.0,-2.9508855,5.2315483,-5.6638794,-5.652632,-0.00020228348,-0.002365633,0.0030725298,-0.15845844,-0.0122477515,-0.076062106,-1.0485866,0.0739513,229.40294,67.76298,0.38084716,0.42067465,0.14917661,0.11342086,inf,inf,inf,inf,1,1,1,1,2,0,2,1,48,1,1,1,0,0
21753268000,21753268000,1036000,41.606704,-86.3556021,-35.722656,63.164837,-70.33333,0.000492924,0.00010286037,0.0,-2.9654489,5.243013,-5.6650305,-5.660451,-0.00020228348,-0.002365633,0.0030725298,0.23237929,0.0034261898,0.2539418,-1.0487708,0.0739513,229.40294,70.573044,0.36199895,0.41366592,0.13974558,0.10971038,inf,inf,inf,inf,1,1,1,1,2,0,2,1,48,1,1,1,0,0
21753772000,21753772000,1036000,41.606704,-86.3556021,-37.21401,65.811676,-73.19698,0.000492924,0.00010286037,0.0,-2.969715,5.249127,-5.6576447,-5.6628504,-0.00020228348,-0.002365633,0.0030725298,-0.0574858,0.0016126183,0.0037764497,-1.0485895,0.0739513,229.40294,73.4367,0.38648063,0.4213933,0.1516169,0.11344147,inf,inf,inf,inf,1,1,1,1,2,0,2,1,48,1,1,1,0,0
21754268000,21754268000,1036000,41.606704,-86.3556021,-38.686974,68.42196,-76.00752,0.000492924,0.00010286037,0.0,-2.9742737,5.261782,-5.648251,-5.656143,-0.00020228348,-0.002365633,0.0030725298,-0.0049488717,0.06828212,0.04828622,-1.0490392,0.0739513,229.40294,76.24724,0.36607516,0.4171749,0.14124617,0.109998025,inf,inf,inf,inf,1,1,1,1,2,0,2,1,48,1,1,1,0,0
21754772000,21754772000,1036000,41.606704,-86.3556021,-40.180626,71.07562,-78.85613,0.000492924,0.00010286037,0.0,-2.976109,5.270147,-5.634847,-5.6425753,-0.00020228348,-0.002365633,0.0030725298,-0.04024967,0.02517627,0.055273928,-1.0490913,0.0739513,229.40294,79.09585,0.3692935,0.4163001,0.14297423,0.11002755,inf,inf,inf,inf,1,1,1,1,2,0,2,1,48,1,1,1,0,0
21755268000,21755268000,1036000,41.606704,-86.3556021,-41.656036,73.686356,-81.66326,0.000492924,0.00010286037,0.0,-2.9862354,5.2757826,-5.6284018,-5.6442914,-0.00020228348,-0.002365633,0.0030725298,0.022882227,0.013838632,0.014454994,-1.0492274,0.0739513,229.40294,81.90298,0.37138507,0.41770807,0.1438443,0.11016702,inf,inf,inf,inf,1,1,1,1,2,0,2,1,48,1,1,1,0,0
21755772000,21755772000,1036000,41.606704,-86.3556021,-43.157875,76.335434,-84.522484,0.000492924,0.00010286037,0.0,-3.0111005,5.275852,-5.632902,-5.6587105,-0.00020228348,-0.002365633,0.0030725298,-0.11477877,0.049009416,-0.11881354,-1.0490533,0.0739513,229.40294,84.7622,0.37388518,0.41672707,0.14487094,0.11008992,inf,inf,inf,inf,1,1,1,1,2,0,2,1,48,1,1,1,0,0
21756268000,21756268000,1036000,41.606704,-86.3556021,-44.635777,78.94347,-87.335724,0.000492924,0.00010286037,0.0,-3.0086763,5.2825756,-5.625038,-5.6564384,-0.00020228348,-0.002365633,0.0030725298,0.09862311,-0.32941577,0.79182154,-1.0493344,0.0739513,229.40294,87.57544,0.37666655,0.41823098,0.14638905,0.11036898,inf,inf,inf,inf,1,1,1,1,2,0,2,1,48,1,1,1,0,0
21756772000,21756772000,1036000,41.606704,-86.3556021,-46.141235,81.60122,-90.18742,0.000492924,0.00010286037,0.0,-3.009891,5.2858763,-5.616736,-5.650011,-0.00020228348,-0.002365633,0.0030725298,-0.09688155,-0.034750372,0.09075824,-1.0490484,0.0739513,229.40294,90.42714,0.37852007,0.4172774,0.14673105,0.110230885,inf,inf,inf,inf,1,1,1,1,2,0,2,1,48,1,1,1,0,0
21757268000,21757268000,1036000,41.606704,-86.3556021,-47.619976,84.223175,-93.00013,0.000492924,0.00010286037,0.0,-3.0041564,5.2891355,-5.6133785,-5.655237,-0.00020228348,-0.002365633,0.0030725298,-0.08362353,0.03095732,0.030990627,-1.0493299,0.0739513,229.40294,93.239845,0.36045384,0.4135844,0.13811567,0.10732146,inf,inf,inf,inf,1,1,1,1,2,0,2,1,48,1,1,1,0,0
21757772000,21757772000,1036000,41.606704,-86.3556021,-49.12505,86.88512,-95.86607,0.000492924,0.00010286037,0.0,-3.0075374,5.2834563,-5.613795,-5.6655893,-0.00020228348,-0.002365633,0.0030725298,0.00604727,-0.028744169,-0.00025897086,-1.0493299,0.0739513,229.40294,96.10579,0.384781,0.41813987,0.14996955,0.11066846,inf,inf,inf,inf,1,1,1,1,2,0,2,1,48,1,1,1,0,0
21758268000,21758268000,1036000,41.606704,-86.3556021,-50.603825,89.5053,-98.67803,0.000492924,0.00010286037,0.0,-3.0016732,5.2817636,-5.6072326,-5.66142,-0.00020228348,-0.002365633,0.0030725298,0.008433629,0.04549956,0.028273957,-1.049093,0.0739513,229.40294,98.91775,0.36490774,0.41432747,0.14010052,0.10764577,inf,inf,inf,inf,1,1,1,1,2,0,2,1,48,1,1,1,0,0
21758772000,21758772000,1036000,41.606704,-86.3556021,-52.1125,92.17239,-101.54088,0.000492924,0.00010286037,0.0,-2.9991999,5.2803307,-5.6027503,-5.6647725,-0.00020228348,-0.002365633,0.0030725298,0.08805604,-0.035756007,-0.0019269695,-1.0492535,0.0739513,229.40294,101.780594,0.36823842,0.41365525,0.14193195,0.10785926,inf,inf,inf,inf,1,1,1,1,2,0,2,1,48,1,1,1,0,0
21759268000,21759268000,1036000,41.606704,-86.3556021,-53.59766,94.80161,-104.34463,0.000492924,0.00010286037,0.0,-2.994292,5.287906,-5.588401,-5.645987,-0.00020228348,-0.002365633,0.0030725298,-0.03208654,0.043849293,-0.09259029,-1.0495011,0.0739513,229.40294,104.58434,0.36931726,0.41517198,0.1419396,0.10800102,inf,inf,inf,inf,1,1,1,1,2,0,2,1,48,1,1,1,0,0
21759772000,21759772000,1036000,41.606704,-86.3556021,-55.105053,97.47257,-107.20213,0.000492924,0.00010286037,0.0,-2.9959142,5.2996984,-5.5887322,-5.6546206,-0.00020228348,-0.002365633,0.0030725298,-0.20158294,0.28621322,-0.5810242,-1.0490882,0.0739513,229.40294,107.44185,0.37210926,0.41454306,0.14331502,0.10815906,inf,inf,inf,inf,1,1,1,1,2,0,2,1,48,1,1,1,0,0
21760268000,21760268000,1036000,41.606704,-86.3556021,-56.59605,100.1079,-110.021286,0.000492924,0.00010286037,0.0,-2.9944181,5.311161,-5.587846,-5.6642056,-0.00020228348,-0.002365633,0.0030725298,0.026715228,0.031703223,-0.0069542485,-1.0492694,0.0739513,229.40294,110.261,0.37514195,0.41638035,0.14510913,0.10864717,inf,inf,inf,inf,1,1,1,1,2,0,2,1,48,1,1,1,0,0
21760772000,21760772000,1036000,41.606704,-86.3556021,-58.110157,102.78467,-112.88295,0.000492924,0.00010286037,0.0,-2.9875388,5.3176584,-5.59329,-5.6751165,-0.00020228348,-0.002365633,0.0030725298,0.06280912,0.070379086,0.06761395,-1.049303,0.0739513,229.40294,113.122665,0.37718529,0.41566178,0.14565872,0.108678274,inf,inf,inf,inf,1,1,1,1,2,0,2,1,48,1,1,1,0,0
21761268000,21761268000,1036000,41.606704,-86.3556021,-59.597996,105.412224,-115.71236,0.000492924,0.00010286037,0.0,-2.9866393,5.3194103,-5.6022496,-5.691822,-0.00020228348,-0.002365633,0.0030725298,0.07412408,0.02242781,-0.015605303,-1.0491525,0.0739513,229.40294,115.95207,0.3594406,0.40944764,0.13731344,0.10570536,inf,inf,inf,inf,1,1,1,1,2,0,2,1,48,1,1,1,0,0
21761772000,21761772000,1036000,41.606704,-86.3556021,-61.10747,108.08426,-118.57636,0.000492924,0.00010286037,0.0,-2.9871194,5.323499,-5.6006355,-5.683733,-0.00020228348,-0.002365633,0.0030725298,-0.08138787,0.013943517,-0.043226466,-1.0492932,0.0739513,229.40294,118.81608,0.3822463,0.41672093,0.14793675,0.109182015,inf,inf,inf,inf,1,1,1,1,2,0,2,1,48,1,1,1,0,0
21762268000,21762268000,1036000,41.606704,-86.3556021,-62.59946,110.71452,-121.39999,0.000492924,0.00010286037,0.0,-2.9850175,5.3249416,-5.605648,-5.6906643,-0.00020228348,-0.002365633,0.0030725298,0.10320409,0.13384695,-0.08693716,-1.0494528,0.0739513,229.40294,121.6397,0.36313018,0.41312128,0.1387501,0.106395364,inf,inf,inf,inf,1,1,1,1,2,0,2,1,48,1,1,1,0,0
21762772000,21762772000,1036000,41.606704,-86.3556021,-64.111885,113.38323,-124.2834,0.000492924,0.00010286037,0.0,-2.9810817,5.3274784,-5.6152368,-5.7089815,-0.00020228348,-0.002365633,0.0030725298,0.20550337,-0.062240094,0.2790074,-1.0492898,0.0739513,229.40294,124.52312,0.3666392,0.41248226,0.14086151,0.106718235,inf,inf,inf,inf,1,1,1,1,2,0,2,1,48,1,1,1,0,0
21763268000,21763268000,1036000,41.606704,-86.3556021,-65.59123,116.018005,-127.10171,0.000492924,0.00010286037,0.0,-2.9744923,5.328742,-5.6154623,-5.6971807,-0.00020228348,-0.002365633,0.0030725298,-0.013098671,-0.06902147,0.1214565,-1.0492349,0.0739513,229.40294,127.34142,0.3679216,0.41406062,0.14109717,0.10697485,inf,inf,inf,inf,1,1,1,1,2,0,2,1,48,1,1,1,0,0
21763772000,21763772000,1036000,41.606704,-86.3556021,-67.0989,118.69898,-129.97656,0.000492924,0.00010286037,0.0,-2.9711778,5.3326616,-5.624068,-5.7061033,-0.00020228348,-0.002365633,0.0030725298,0.038099032,-0.0069301017,-0.011971283,-1.0494409,0.0739513,229.40294,130.21628,0.37081084,0.41334826,0.14257187,0.10718895,inf,inf,inf,inf,1,1,1,1,2,0,2,1,48,1,1,1,0,0
21764268000,21764268000,1036000,41.606704,-86.3556021,-68.5811,121.33802,-132.80728,0.000492924,0.00010286037,0.0,-2.9757257,5.339701,-5.6343803,-5.7140613,-0.00020228348,-0.002365633,0.0030725298,-0.0034033759,-0.0064158863,-0.0021812206,-1.0496857,0.0739513,229.40294,133.047,0.37266344,0.41490516,0.1433202,0.107530124,inf,inf,inf,inf,1,1,1,1,2,0,2,1,48,1,1,1,0,0
21764772000,21764772000,1036000,41.606704,-86.3556021,-70.09205,124.027084,-135.68526,0.000492924,0.00010286037,0.0,-2.972455,5.339155,-5.638977,-5.715181,-0.00020228348,-0.002365633,0.0030725298,0.0053124228,0.027633578,0.045510877,-1.0497878,0.0739513,229.40294,135.92497,0.3750153,0.4141989,0.14428186,0.107680276,inf,inf,inf,inf,1,1,1,1,2,0,2,1,48,1,1,1,0,0
21765268000,21765268000,1036000,41.606704,-86.3556021,-71.5802,126.6749,-138.51129,0.000492924,0.00010286037,0.0,-2.9801164,5.3348002,-5.637353,-5.707217,-0.00020228348,-0.002365633,0.0030725298,0.0020858825,-0.030047392,-0.077202044,-1.0496252,0.0739513,229.40294,138.751,0.35791788,0.41095328,0.1363949,0.10519544,inf,inf,inf,inf,1,1,1,1,2,0,2,1,48,1,1,1,0,0
21765772000,21765772000,1036000,41.606704,-86.3556021,-73.086136,129.36023,-141.38443,0.000492924,0.00010286037,0.0,-2.9823825,5.324481,-5.6426306,-5.7076006,-0.00020228348,-0.002365633,0.0030725298,0.072954275,-0.3319701,0.7452889,-1.0495441,0.0739513,229.40294,141.62415,0.3805775,0.41522253,0.1470599,0.10837134,inf,inf,inf,inf,1,1,1,1,2,0,2,1,48,1,1,1,0,0
21766268000,21766268000,1036000,41.606704,-86.3556021,-74.57708,132.001,-144.2171,0.000492924,0.00010286037,0.0,-2.9854724,5.3214183,-5.645174,-5.709805,-0.00020228348,-0.002365633,0.0030725298,-0.04427488,0.023017887,-0.016667943,-1.0499597,0.0739513,229.40294,144.45682,0.36195666,0.41171968,0.13815928,0.10572756,inf,inf,inf,inf,1,1,1,1,2,0,2,1,48,1,1,1,0,0
21766764000,21766764000,1036000,41.606704,-86.3556021,-76.06967,134.64316,-147.04605,0.000492924,0.00010286037,0.0,-2.994133,5.323221,-5.646116,-5.7077913,-0.00020228348,-0.002365633,0.0030725298,-0.009481645,-0.05801596,0.0061969566,-1.0497168,0.0739513,229.40294,147.28577,0.38547593,0.41851336,0.14943355,0.10924049,inf,inf,inf,inf,1,1,1,1,2,0,2,1,48,1,1,1,0,0
21767268000,21767268000,1036000,41.606704,-86.3556021,-77.57939,137.32634,-149.92215,0.000492924,0.00010286037,0.0,-2.9902937,5.3196926,-5.652257,-5.711071,-0.00020228348,-0.002365633,0.0030725298,-0.012843531,0.050668184,-0.03468903,-1.0498707,0.0739513,229.40294,150.16187,0.36595064,0.41253266,0.13980934,0.10627365,inf,inf,inf,inf,1,1,1,1,2,0,2,1,48,1,1,1,0,0
21767772000,21767772000,1036000,41.606704,-86.3556021,-79.0862,140.01059,-152.80293,0.000492924,0.00010286037,0.0,-2.984329,5.3212924,-5.6515484,-5.7132845,-0.00020228348,-0.002365633,0.0030725298,-0.043392036,0.054023523,0.03883143,-1.049703,0.0739513,229.40294,153.04265,0.3690587,0.41469926,0.14155464,0.10689286,inf,inf,inf,inf,1,1,1,1,2,0,2,1,48,1,1,1,0,0
21768268000,21768268000,1036000,41.606704,-86.3556021,-80.5712,142.65445,-155.63286,0.000492924,0.00010286037,0.0,-2.9840195,5.3195868,-5.651553,-5.7095327,-0.00020228348,-0.002365633,0.0030725298,0.027925266,0.022318674,-0.14255387,-1.0497136,0.0739513,229.40294,155.87257,0.36994433,0.41329113,0.14150327,0.106804326,inf,inf,inf,inf,1,1,1,1,2,0,2,1,48,1,1,1,0,0
21768772000,21768772000,1036000,41.606704,-86.3556021,-82.080185,145.34009,-158.51305,0.000492924,0.00010286037,0.0,-2.982913,5.3128037,-5.651779,-5.7118626,-0.00020228348,-0.002365633,0.0030725298,-0.06741223,0.09633808,-0.05592505,-1.0496657,0.0739513,229.40294,158.75276,0.3725707,0.4126007,0.14285061,0.107037246,inf,inf,inf,inf,1,1,1,1,2,0,2,1,48,1,1,1,0,0
21769268000,21769268000,1036000,41.606704,-86.3556021,-83.57205,147.99553,-161.34354,0.000492924,0.00010286037,0.0,-2.985799,5.3195324,-5.6573377,-5.7127576,-0.00020228348,-0.002365633,0.0030725298,-0.001941119,-0.013351219,0.030609716,-1.0496062,0.0739513,229.40294,161.58325,0.3754597,0.41435626,0.14462301,0.10759719,inf,inf,inf,inf,1,1,1,1,2,0,2,1,48,1,1,1,0,0
21769772000,21769772000,1036000,41.606704,-86.3556021,-85.081276,150.6876,-164.21675,0.000492924,0.00010286037,0.0,-2.9802463,5.313268,-5.6600523,-5.710232,-0.00020228348,-0.002365633,0.0030725298,-0.06580073,-0.039549857,0.03656925,-1.0496979,0.0739513,229.40294,164.45647,0.37739098,0.4136424,0.14518894,0.10772054,inf,inf,inf,inf,1,1,1,1,2,0,2,1,48,1,1,1,0,0
21770268000,21770268000,1036000,41.606704,-86.3556021,-86.57318,153.34413,-167.04613,0.000492924,0.00010286037,0.0,-2.9790838,5.3131104,-5.669655,-5.715813,-0.00020228348,-0.002365633,0.0030725298,0.031052308,-0.043939568,0.0050663315,-1.0495598,0.0739513,229.40294,167.28584,0.35964882,0.41051334,0.13696085,0.105247594,inf,inf,inf,inf,1,1,1,1,2,0,2,1,48,1,1,1,0,0
21770772000,21770772000,1036000,41.606704,-86.3556021,-88.08571,156.03653,-169.9251,0.000492924,0.00010286037,0.0,-2.9833646,5.3024483,-5.6807437,-5.723403,-0.00020228348,-0.002365633,0.0030725298,-0.057284795,-0.014334562,0.0030043833,-1.0494727,0.0739513,229.40294,170.16481,0.3823507,0.41496915,0.14757918,0.10845575,inf,inf,inf,inf,1,1,1,1,2,0,2,1,48,1,1,1,0,0
21771268000,21771268000,1036000,41.606704,-86.3556021,-89.57487,158.693,-172.76193,0.000492924,0.00010286037,0.0,-2.9755268,5.30591,-5.688094,-5.7273245,-0.00020228348,-0.002365633,0.0030725298,0.026136834,-0.026666401,-0.047565497,-1.0494614,0.0739513,229.40294,173.00165,0.3632129,0.41166142,0.13845566,0.10582676,inf,inf,inf,inf,1,1,1,1,2,0,2,1,48,1,1,1,0,0
21771772000,21771772000,1036000,41.606704,-86.3556021,-91.08609,161.39114,-175.64403,0.000492924,0.00010286037,0.0,-2.9730506,5.3100696,-5.692581,-5.7270365,-0.00020228348,-0.002365633,0.0030725298,0.032091796,0.029407687,-0.046959206,-1.0494772,0.0739513,229.40294,175.88374,0.3666698,0.4112631,0.14057347,0.106253795,inf,inf,inf,inf,1,1,1,1,2,0,2,1,48,1,1,1,0,0
21772268000,21772268000,1036000,41.606704,-86.3556021,-92.57339,164.04562,-178.4806,0.000492924,0.00010286037,0.0,-2.9744794,5.3086143,-5.703567,-5.7326894,-0.00020228348,-0.002365633,0.0030725298,-0.20512965,0.19687112,-0.5203793,-1.0496042,0.0739513,229.40294,178.72032,0.3679829,0.41025364,0.14088376,0.10630535,inf,inf,inf,inf,1,1,1,1,2,0,2,1,48,1,1,1,0,0
21772772000,21772772000,1036000,41.606704,-86.3556021,-94.080605,166.74028,-181.3641,0.000492924,0.00010286037,0.0,-2.9729798,5.301787,-5.7068386,-5.7305455,-0.00020228348,-0.002365633,0.0030725298,0.030987795,-0.109141305,0.05510722,-1.0498246,0.0739513,229.40294,181.60382,0.37083474,0.41269654,0.14235646,0.10693521,inf,inf,inf,inf,1,1,1,1,2,0,2,1,48,1,1,1,0,0
21773268000,21773268000,1036000,41.606704,-86.3556021,-95.56092,169.3884,-184.2054,0.000492924,0.00010286037,0.0,-2.9750125,5.3028584,-5.712362,-5.7343373,-0.00020228348,-0.002365633,0.0030725298,-0.01376706,-0.03344618,-0.05969411,-1.0499028,0.0739513,229.40294,184.44511,0.37266052,0.41171953,0.14307366,0.10704665,inf,inf,inf,inf,1,1,1,1,2,0,2,1,48,1,1,1,0,0
21773772000,21773772000,1036000,41.606704,-86.3556021,-97.057014,172.08,-187.0891,0.000492924,0.00010286037,0.0,-2.9700463,5.300146,-5.7157307,-5.7325234,-0.00020228348,-0.002365633,0.0030725298,0.045833074,-0.06273966,-0.0052052247,-1.0501349,0.0739513,229.40294,187.32881,0.37498903,0.41410947,0.14404424,0.10757712,inf,inf,inf,inf,1,1,1,1,2,0,2,1,48,1,1,1,0,0
21774268000,21774268000,1036000,41.606704,-86.3556021,-98.529175,174.73203,-189.92947,0.000492924,0.00010286037,0.0,-2.9676716,5.29107,-5.730492,-5.743611,-0.00020228348,-0.002365633,0.0030725298,0.06752228,0.01440143,-0.12758565,-1.0498178,0.0739513,229.40294,190.16919,0.35790327,0.4109726,0.13623993,0.10512217,inf,inf,inf,inf,1,1,1,1,2,0,2,1,48,1,1,1,0,0
21774772000,21774772000,1036000,41.606704,-86.3556021,-100.03021,177.41426,-192.82512,0.000492924,0.00010286037,0.0,-2.9737568,5.2841535,-5.737334,-5.7495527,-0.00020228348,-0.002365633,0.0030725298,-0.110950105,-0.10240779,-0.12905714,-1.0493922,0.0739513,229.40294,193.06483,0.38052016,0.4153521,0.14687724,0.108323045,inf,inf,inf,inf,1,1,1,1,2,0,2,1,48,1,1,1,0,0
21775268000,21775268000,1036000,41.606704,-86.3556021,-101.5163,180.06212,-195.6585,0.000492924,0.00010286037,0.0,-2.9729986,5.287383,-5.7439756,-5.74073,-0.00020228348,-0.002365633,0.0030725298,0.26238564,-0.07792014,0.2531893,-1.0497768,0.0739513,229.40294,195.89821,0.36187118,0.41190052,0.13798425,0.10568702,inf,inf,inf,inf,1,1,1,1,2,0,2,1,48,1,1,1,0,0
21775772000,21775772000,1036000,41.606704,-86.3556021,-103.02267,182.75037,-198.5453,0.000492924,0.00010286037,0.0,-2.9766247,5.2813005,-5.746559,-5.739421,-0.00020228348,-0.002365633,0.0030725298,0.03254054,-0.071630016,0.031772938,-1.0501524,0.0739513,229.40294,198.78502,0.38610843,0.4162765,0.1496096,0.10898969,inf,inf,inf,inf,1,1,1,1,2,0,2,1,48,1,1,1,0,0
21776268000,21776268000,1036000,41.606704,-86.3556021,-104.50083,185.3972,-201.37123,0.000492924,0.00010286037,0.0,-2.9755075,5.27911,-5.748941,-5.725721,-0.00020228348,-0.002365633,0.0030725298,0.010400851,-0.02689406,-0.030849189,-1.0499368,0.0739513,229.40294,201.61095,0.36586818,0.41265783,0.1396961,0.106221475,inf,inf,inf,inf,1,1,1,1,2,0,2,1,48,1,1,1,0,0
21776772000,21776772000,1036000,41.606704,-86.3556021,-106.00869,188.09106,-204.2443,0.000492924,0.00010286037,0.0,-2.9793317,5.2817326,-5.7530026,-5.7211595,-0.00020228348,-0.002365633,0.0030725298,-0.019922765,-0.007259773,-0.021867516,-1.0493388,0.0739513,229.40294,204.48401,0.36904067,0.41208056,0.14150164,0.10656668,inf,inf,inf,inf,1,1,1,1,2,0,2,1,48,1,1,1,0,0
21777268000,21777268000,1036000,41.606704,-86.3556021,-107.487755,190.7281,-207.08646,0.000492924,0.00010286037,0.0,-2.979921,5.274808,-5.760649,-5.732903,-0.00020228348,-0.002365633,0.0030725298,-0.040522844,0.04653987,-0.11129404,-1.0496976,0.0739513,229.40294,207.32617,0.371107,0.4137401,0.14246097,0.10700106,inf,inf,inf,inf,1,1,1,1,2,0,2,1,48,1,1,1,0,0
21777764000,21777764000,1036000,41.606704,-86.3556021,-108.96931,193.36345,-209.9195,0.000492924,0.00010286037,0.0,-2.9781287,5.2704887,-5.7575903,-5.7226033,-0.00020228348,-0.002365633,0.0030725298,-0.09278578,-0.021715995,-0.14913459,-1.0494125,0.0739513,229.40294,210.15921,0.37287617,0.4153104,0.14318486,0.10737126,inf,inf,inf,inf,1,1,1,1,2,0,2,1,48,1,1,1,0,0
21778268000,21778268000,1036000,41.606704,-86.3556021,-110.47244,196.04388,-212.78804,0.000492924,0.00010286037,0.0,-2.9760993,5.266761,-5.751233,-5.706694,-0.00020228348,-0.002365633,0.0030725298,0.041119013,-0.41758382,0.6343759,-1.0494196,0.0739513,229.40294,213.02776,0.3763357,0.41458037,0.14507076,0.10769275,inf,inf,inf,inf,1,1,1,1,2,0,2,1,48,1,1,1,0,0
21778772000,21778772000,1036000,41.606704,-86.3556021,-111.97436,198.72244,-215.6787,0.000492924,0.00010286037,0.0,-2.9815624,5.2647552,-5.754536,-5.7224774,-0.00020228348,-0.002365633,0.0030725298,-0.06871812,0.033420406,-0.025324585,-1.0491625,0.0739513,229.40294,215.91841,0.37818387,0.41662762,0.14550826,0.10810782,inf,inf,inf,inf,1,1,1,1,2,0,2,1,48,1,1,1,0,0
21779268000,21779268000,1036000,41.606704,-86.3556021,-113.45508,201.37004,-218.51569,0.000492924,0.00010286037,0.0,-2.9765472,5.267798,-5.755474,-5.7226415,-0.00020228348,-0.002365633,0.0030725298,-0.008410599,0.014404722,-0.035692066,-1.0495496,0.0739513,229.40294,218.7554,0.36024183,0.41041118,0.13713256,0.105261065,inf,inf,inf,inf,1,1,1,1,2,0,2,1,48,1,1,1,0,0
21779772000,21779772000,1036000,41.606704,-86.3556021,-114.95013,204.04971,-221.38911,0.000492924,0.00010286037,0.0,-2.9748323,5.2662716,-5.752327,-5.7128506,-0.00020228348,-0.002365633,0.0030725298,-0.08527288,0.05246605,-0.0032121947,-1.0497465,0.0739513,229.40294,221.62883,0.38439822,0.41500735,0.14883503,0.10867145,inf,inf,inf,inf,1,1,1,1,2,0,2,1,48,1,1,1,0,0
21780268000,21780268000,1036000,41.606704,-86.3556021,-116.42879,206.68658,-224.22815,0.000492924,0.00010286037,0.0,-2.977846,5.2660155,-5.7570567,-5.7211657,-0.00020228348,-0.002365633,0.0030725298,0.03332954,-0.047235288,0.012041006,-1.0497029,0.0739513,229.40294,224.46786,0.36467892,0.4116264,0.13924703,0.106004715,inf,inf,inf,inf,1,1,1,1,2,0,2,1,48,1,1,1,0,0
21780772000,21780772000,1036000,41.606704,-86.3556021,-117.92895,209.36409,-227.10518,0.000492924,0.00010286037,0.0,-2.9782548,5.26201,-5.753628,-5.7134557,-0.00020228348,-0.002365633,0.0030725298,0.014284223,0.009337141,0.026218528,-1.0497597,0.0739513,229.40294,227.3449,0.36793444,0.41391215,0.1410816,0.10667552,inf,inf,inf,inf,1,1,1,1,2,0,2,1,48,1,1,1,0,0
21781268000,21781268000,1036000,41.606704,-86.3556021,-119.40034,211.9923,-229.9344,0.000492924,0.00010286037,0.0,-2.9801576,5.2568507,-5.743126,-5.701556,-0.00020228348,-0.002365633,0.0030725298,0.06373707,0.024100235,-0.12745062,-1.0498037,0.0739513,229.40294,230.17412,0.36902937,0.41254902,0.14115416,0.10662282,inf,inf,inf,inf,1,1,1,1,2,0,2,1,48,1,1,1,0,0
21781772000,21781772000,1036000,41.606704,-86.3556021,-120.8895,214.67143,-232.80373,0.000492924,0.00010286037,0.0,-2.966446,5.266658,-5.7344055,-5.692368,-0.00020228348,-0.002365633,0.0030725298,-0.18364707,0.19786274,-0.5436158,-1.0496063,0.0739513,229.40294,233.04344,0.37181944,0.41471526,0.1425517,0.107192926,inf,inf,inf,inf,1,1,1,1,2,0,2,1,48,1,1,1,0,0
21782268000,21782268000,1036000,41.606704,-86.3556021,-122.360985,217.30815,-235.63797,0.000492924,0.00010286037,0.0,-2.9648356,5.2665315,-5.727882,-5.6973023,-0.00020228348,-0.002365633,0.0030725298,0.047682248,-0.04916027,0.04735862,-1.0496985,0.0739513,229.40294,235.87769,0.3748442,0.41351044,0.14436214,0.10742861,inf,inf,inf,inf,1,1,1,1,2,0,2,1,48,1,1,1,0,0
21782772000,21782772000,1036000,41.606704,-86.3556021,-123.856926,219.97702,-238.50969,0.000492924,0.00010286037,0.0,-2.960385,5.2646575,-5.715438,-5.68655,-0.00020228348,-0.002365633,0.0030725298,0.03940404,-0.04315299,0.022789398,-1.0497515,0.0739513,229.40294,238.7494,0.3768286,0.41564512,0.14487925,0.10787624,inf,inf,inf,inf,1,1,1,1,2,0,2,1,48,1,1,1,0,0
21783268000,21783268000,1036000,41.606704,-86.3556021,-125.320694,222.6099,-241.33406,0.000492924,0.00010286037,0.0,-2.9608145,5.264927,-5.705734,-5.682152,-0.00020228348,-0.002365633,0.0030725298,-0.031577334,0.012074083,0.040749956,-1.0496382,0.0739513,229.40294,241.57378,0.35921562,0.41223773,0.13667502,0.10534885,inf,inf,inf,inf,1,1,1,1,2,0,2,1,48,1,1,1,0,0
21783772000,21783772000,1036000,41.606704,-86.3556021,-126.81406,225.2798,-244.19583,0.000492924,0.00010286037,0.0,-2.9679163,5.2673125,-5.6864185,-5.6655774,-0.00020228348,-0.002365633,0.0030725298,-0.031045083,-0.020847641,-0.007364962,-1.0495248,0.0739513,229.40294,244.43555,0.38191316,0.41644418,0.1471835,0.10852208,inf,inf,inf,inf,1,1,1,1,2,0,2,1,48,1,1,1,0,0
21784268000,21784268000,1036000,41.606704,-86.3556021,-128.28477,227.90353,-247.0135,0.000492924,0.00010286037,0.0,-2.9698079,5.2646284,-5.6651235,-5.653722,-0.00020228348,-0.002365633,0.0030725298,0.013367075,0.039892048,-0.039648324,-1.0498602,0.0739513,229.40294,247.25322,0.36292043,0.41280895,0.13812354,0.10584795,inf,inf,inf,inf,1,1,1,1,2,0,2,1,48,1,1,1,0,0
21784772000,21784772000,1036000,41.606704,-86.3556021,-129.77577,230.57391,-249.86679,0.000492924,0.00010286037,0.0,-2.9601352,5.264506,-5.653408,-5.6470795,-0.00020228348,-0.002365633,0.0030725298,0.23925306,-0.022759529,0.25563774,-1.049439,0.0739513,229.40294,250.1065,0.3664194,0.41489387,0.14023215,0.10652915,inf,inf,inf,inf,1,1,1,1,2,0,2,1,48,1,1,1,0,0
21785268000,21785268000,1036000,41.606704,-86.3556021,-131.23624,233.1934,-252.67183,0.000492924,0.00010286037,0.0,-2.9532712,5.263948,-5.6349845,-5.6356215,-0.00020228348,-0.002365633,0.0030725298,-0.030583424,-0.061454944,0.05815637,-1.0494874,0.0739513,229.40294,252.91154,0.367715,0.41333818,0.14049037,0.10648618,inf,inf,inf,inf,1,1,1,1,2,0,2,1,48,1,1,1,0,0
21785772000,21785772000,1036000,41.606704,-86.3556021,-132.72151,235.85425,-255.53325,0.000492924,0.00010286037,0.0,-2.953723,5.2629724,-5.6239614,-5.644196,-0.00020228348,-0.002365633,0.0030725298,0.1085584,-0.097980894,0.10636162,-1.0493481,0.0739513,229.40294,255.77296,0.37059924,0.41532004,0.14195582,0.10705526,inf,inf,inf,inf,1,1,1,1,2,0,2,1,48,1,1,1,0,0
21786268000,21786268000,1036000,41.606704,-86.3556021,-134.18779,238.46616,-258.3501,0.000492924,0.00010286037,0.0,-2.9508758,5.2600913,-5.616621,-5.6499753,-0.00020228348,-0.002365633,0.0030725298,-0.027915357,0.0040121917,0.04859821,-1.0492138,0.0739513,229.40294,258.5898,0.37245426,0.41384906,0.1427229,0.10710692,inf,inf,inf,inf,1,1,1,1,2,0,2,1,48,1,1,1,0,0
21786772000,21786772000,1036000,41.606704,-86.3556021,-135.68007,241.13074,-261.21198,0.000492924,0.00010286037,0.0,-2.9481568,5.2627277,-5.6129704,-5.656588,-0.00020228348,-0.002365633,0.0030725298,0.056930784,-0.028875398,-0.018245604,-1.049174,0.0739513,229.40294,261.4517,0.37480688,0.41586807,0.14372349,0.107607946,inf,inf,inf,inf,1,1,1,1,2,0,2,1,48,1,1,1,0,0
21787268000,21787268000,1036000,41.606704,-86.3556021,-137.14316,243.75018,-264.03296,0.000492924,0.00010286037,0.0,-2.9464462,5.260941,-5.6089344,-5.6638412,-0.00020228348,-0.002365633,0.0030725298,-0.08088991,-0.014162905,-0.11287729,-1.049083,0.0739513,229.40294,264.27267,0.3577803,0.41242415,0.13596565,0.10514133,inf,inf,inf,inf,1,1,1,1,2,0,2,1,48,1,1,1,0,0
21787772000,21787772000,1036000,41.606704,-86.3556021,-138.63228,246.40591,-266.89554,0.000492924,0.00010286037,0.0,-2.9411063,5.261054,-5.6092877,-5.6675043,-0.00020228348,-0.002365633,0.0030725298,0.10893764,-0.458645,0.7434393,-1.0493894,0.0739513,229.40294,267.13525,0.38036683,0.4165323,0.14657831,0.10833833,inf,inf,inf,inf,1,1,1,1,2,0,2,1,48,1,1,1,0,0
21788268000,21788268000,1036000,41.606704,-86.3556021,-140.10336,249.02473,-269.7216,0.000492924,0.00010286037,0.0,-2.9397447,5.266554,-5.607439,-5.675491,-0.00020228348,-0.002365633,0.0030725298,0.0069744545,-0.053139616,0.08806765,-1.049302,0.0739513,229.40294,269.9613,0.3617675,0.41288322,0.13773793,0.105703026,inf,inf,inf,inf,1,1,1,1,2,0,2,1,48,1,1,1,0,0
21788772000,21788772000,1036000,41.606704,-86.3556021,-141.59235,251.68492,-272.58926,0.000492924,0.00010286037,0.0,-2.9393814,5.266531,-5.6143947,-5.682203,-0.00020228348,-0.002365633,0.0030725298,-0.035190206,-0.03862487,0.018166313,-1.0492485,0.0739513,229.40294,272.82898,0.38597175,0.4170674,0.14933524,0.10901268,inf,inf,inf,inf,1,1,1,1,2,0,2,1,48,1,1,1,0,0
21789268000,21789268000,1036000,41.606704,-86.3556021,-143.04662,254.30573,-275.40775,0.000492924,0.00010286037,0.0,-2.9255025,5.276342,-5.617219,-5.6837354,-0.00020228348,-0.002365633,0.0030725298,0.023397146,-0.024689505,0.0809477,-1.0493671,0.0739513,229.40294,275.64746,0.3657824,0.41323614,0.13948491,0.106229946,inf,inf,inf,inf,1,1,1,1,2,0,2,1,48,1,1,1,0,0
21789772000,21789772000,1036000,41.606704,-86.3556021,-144.52898,256.97437,-278.27823,0.000492924,0.00010286037,0.0,-2.9256737,5.275217,-5.6203284,-5.6905203,-0.00020228348,-0.002365633,0.0030725298,0.023460105,-0.038365968,-0.028522747,-1.0497954,0.0739513,229.40294,278.51794,0.36895904,0.41519332,0.14132018,0.10685139,inf,inf,inf,inf,1,1,1,1,2,0,2,1,48,1,1,1,0,0
21790268000,21790268000,1036000,41.606704,-86.3556021,-145.9941,259.60016,-281.09518,0.000492924,0.00010286037,0.0,-2.9317212,5.275168,-5.6142564,-5.678883,-0.00020228348,-0.002365633,0.0030725298,-0.07525596,0.07776747,-0.07847237,-1.0495659,0.0739513,229.40294,281.3349,0.3710313,0.41365856,0.14224768,0.106931955,inf,inf,inf,inf,1,1,1,1,2,0,2,1,48,1,1,1,0,0
21790772000,21790772000,1036000,41.606704,-86.3556021,-147.48225,262.2604,-283.95505,0.000492924,0.00010286037,0.0,-2.9357758,5.2650743,-5.611266,-5.673434,-0.00020228348,-0.002365633,0.0030725298,0.06468826,0.06676981,-0.06322289,-1.0492557,0.0739513,229.40294,284.19476,0.3735786,0.41569567,0.1433838,0.107471704,inf,inf,inf,inf,1,1,1,1,2,0,2,1,48,1,1,1,0,0
21791268000,21791268000,1036000,41.606704,-86.3556021,-148.94872,264.88025,-286.77783,0.000492924,0.00010286037,0.0,-2.939206,5.2690806,-5.621971,-5.6869664,-0.00020228348,-0.002365633,0.0030725298,0.004541486,0.004080718,0.056939133,-1.0497388,0.0739513,229.40294,287.01755,0.37632605,0.41434222,0.14496073,0.10766698,inf,inf,inf,inf,1,1,1,1,2,0,2,1,48,1,1,1,0,0
21791764000,21791764000,1036000,41.606704,-86.3556021,-150.41031,267.50348,-289.59988,0.000492924,0.00010286037,0.0,-2.9483504,5.2701044,-5.623548,-5.6898804,-0.00020228348,-0.002365633,0.0030725298,-0.02791528,-0.01660898,0.06511056,-1.0494633,0.0739513,229.40294,289.8396,0.37744612,0.41586453,0.14505729,0.107972175,inf,inf,inf,inf,1,1,1,1,2,0,2,1,48,1,1,1,0,0
21792268000,21792268000,1036000,41.606704,-86.3556021,-151.8948,270.17636,-292.46793,0.000492924,0.00010286037,0.0,-2.9491532,5.268353,-5.6269584,-5.691872,-0.00020228348,-0.002365633,0.0030725298,0.04657144,-0.08417138,0.025328184,-1.0498786,0.0739513,229.40294,292.70764,0.36023402,0.41024128,0.13703363,0.105287746,inf,inf,inf,inf,1,1,1,1,2,0,2,1,48,1,1,1,0,0
21792772000,21792772000,1036000,41.606704,-86.3556021,-153.37282,272.8407,-295.3385,0.000492924,0.00010286037,0.0,-2.94659,5.266501,-5.6295815,-5.6944265,-0.00020228348,-0.002365633,0.0030725298,0.09099552,-0.017978294,0.05185132,-1.0499989,0.0739513,229.40294,295.57822,0.38437885,0.41753677,0.14873718,0.10899455,inf,inf,inf,inf,1,1,1,1,2,0,2,1,48,1,1,1,0,0
21793268000,21793268000,1036000,41.606704,-86.3556021,-154.82417,275.4722,-298.15552,0.000492924,0.00010286037,0.0,-2.9379668,5.265594,-5.622412,-5.6827726,-0.00020228348,-0.002365633,0.0030725298,-0.013909471,0.04511274,-0.1017545,-1.0493543,0.0739513,229.40294,298.39523,0.3646056,0.4138982,0.13905627,0.10625624,inf,inf,inf,inf,1,1,1,1,2,0,2,1,48,1,1,1,0,0
21793772000,21793772000,1036000,41.606704,-86.3556021,-156.30212,278.14432,-301.0301,0.000492924,0.00010286037,0.0,-2.9390798,5.2596726,-5.621923,-5.690184,-0.00020228348,-0.002365633,0.0030725298,0.052652422,-0.05368868,-0.06559404,-1.0492603,0.0739513,229.40294,301.2698,0.3679238,0.41322488,0.1409631,0.10661713,inf,inf,inf,inf,1,1,1,1,2,0,2,1,48,1,1,1,0,0
21794268000,21794268000,1036000,41.606704,-86.3556021,-157.75604,280.76773,-303.85095,0.000492924,0.00010286037,0.0,-2.9271252,5.26325,-5.6231933,-5.6895933,-0.00020228348,-0.002365633,0.0030725298,-0.1906668,0.19848368,-0.5145511,-1.0495445,0.0739513,229.40294,304.09067,0.3690159,0.41185328,0.14104015,0.106574565,inf,inf,inf,inf,1,1,1,1,2,0,2,1,48,1,1,1,0,0
21794772000,21794772000,1036000,41.606704,-86.3556021,-159.23524,283.43674,-306.71976,0.000492924,0.00010286037,0.0,-2.9300108,5.252239,-5.6270833,-5.692736,-0.00020228348,-0.002365633,0.0030725298,0.04233736,-0.09656239,0.032313105,-1.0494102,0.0739513,229.40294,306.95947,0.37180465,0.41409323,0.14248993,0.107169986,inf,inf,inf,inf,1,1,1,1,2,0,2,1,48,1,1,1,0,0
21795268000,21795268000,1036000,41.606704,-86.3556021,-160.69096,286.06076,-309.54468,0.000492924,0.00010286037,0.0,-2.9364157,5.252794,-5.6397295,-5.703617,-0.00020228348,-0.002365633,0.0030725298,-0.034719143,0.019696852,-0.017643038,-1.0494766,0.0739513,229.40294,309.7844,0.37483048,0.41583192,0.14433406,0.10774655,inf,inf,inf,inf,1,1,1,1,2,0,2,1,48,1,1,1,0,0
21795772000,21795772000,1036000,41.606704,-86.3556021,-162.16798,288.72852,-312.42398,0.000492924,0.00010286037,0.0,-2.9394438,5.2459593,-5.6540227,-5.719347,-0.00020228348,-0.002365633,0.0030725298,0.016549656,-0.067356296,-0.008816893,-1.0497737,0.0739513,229.40294,312.6637,0.37681752,0.41505876,0.1449108,0.10786867,inf,inf,inf,inf,1,1,1,1,2,0,2,1,48,1,1,1,0,0
21796268000,21796268000,1036000,41.606704,-86.3556021,-163.62172,291.36234,-315.25284,0.000492924,0.00010286037,0.0,-2.9482315,5.2456675,-5.6642756,-5.720547,-0.00020228348,-0.002365633,0.0030725298,-0.04963555,-0.007519935,-0.041636698,-1.049859,0.0739513,229.40294,315.49255,0.3591513,0.4117064,0.13667996,0.10534079,inf,inf,inf,inf,1,1,1,1,2,0,2,1,48,1,1,1,0,0
21796772000,21796772000,1036000,41.606704,-86.3556021,-165.10056,294.03207,-318.13327,0.000492924,0.00010286037,0.0,-2.9540532,5.247307,-5.6705246,-5.722659,-0.00020228348,-0.002365633,0.0030725298,-0.11276407,-0.014391058,-0.14363979,-1.0494155,0.0739513,229.40294,318.373,0.3818515,0.41616607,0.1472634,0.10857853,inf,inf,inf,inf,1,1,1,1,2,0,2,1,48,1,1,1,0,0
21797268000,21797268000,1036000,41.606704,-86.3556021,-166.55095,296.6666,-320.95813,0.000492924,0.00010286037,0.0,-2.9627664,5.250126,-5.677887,-5.718198,-0.00020228348,-0.002365633,0.0030725298,0.1759072,0.0063852947,0.24898809,-1.0493333,0.0739513,229.40294,321.19785,0.36287686,0.40994492,0.1382304,0.105637096,inf,inf,inf,inf,1,1,1,1,2,0,2,1,48,1,1,1,0,0
21797772000,21797772000,1036000,41.606704,-86.3556021,-168.02612,299.34238,-323.82812,0.000492924,0.00010286037,0.0,-2.9601557,5.250578,-5.675301,-5.707578,-0.00020228348,-0.002365633,0.0030725298,-0.045529936,-0.057538684,-0.034543745,-1.049532,0.0739513,229.40294,324.06784,0.3663894,0.41223451,0.14035547,0.10635614,inf,inf,inf,inf,1,1,1,1,2,0,2,1,48,1,1,1,0,0
21798268000,21798268000,1036000,41.606704,-86.3556021,-169.47949,301.96573,-326.65826,0.000492924,0.00010286037,0.0,-2.9594433,5.2491918,-5.67776,-5.7101583,-0.00020228348,-0.002365633,0.0030725298,0.050168358,-0.0059534223,-0.002168182,-1.0498223,0.0739513,229.40294,326.89798,0.36769605,0.41378367,0.14061706,0.1066623,inf,inf,inf,inf,1,1,1,1,2,0,2,1,48,1,1,1,0,0
21798772000,21798772000,1036000,41.606704,-86.3556021,-170.95003,304.63983,-329.5429,0.000492924,0.00010286037,0.0,-2.950833,5.244685,-5.683742,-5.72121,-0.00020228348,-0.002365633,0.0030725298,0.030433312,-0.037930626,0.01586222,-1.0492858,0.0739513,229.40294,329.78262,0.37059283,0.41320354,0.14209886,0.10695542,inf,inf,inf,inf,1,1,1,1,2,0,2,1,48,1,1,1,0,0
21799268000,21799268000,1036000,41.606704,-86.3556021,-172.39859,307.2612,-332.37976,0.000492924,0.00010286037,0.0,-2.9482062,5.2352233,-5.689039,-5.725309,-0.00020228348,-0.002365633,0.0030725298,0.019530827,-0.012468362,-0.040859975,-1.0499146,0.0739513,229.40294,332.61948,0.37245706,0.414947,0.14286514,0.107370436,inf,inf,inf,inf,1,1,1,1,2,0,2,1,48,1,1,1,0,0
21799764000,21799764000,1036000,41.606704,-86.3556021,-173.84213,309.8915,-335.21683,0.000492924,0.00010286037,0.0,-2.9381902,5.237669,-5.6948447,-5.727673,-0.00020228348,-0.002365633,0.0030725298,-0.06737333,0.0069194385,-0.055083133,-1.0495337,0.0739513,229.40294,335.45654,0.3741055,0.41374478,0.14353387,0.10741823,inf,inf,inf,inf,1,1,1,1,2,0,2,1,48,1,1,1,0,0
21800268000,21800268000,1036000,41.606704,-86.3556021,-175.30878,312.5727,-338.0944,0.000492924,0.00010286037,0.0,-2.9349453,5.238549,-5.69153,-5.7165785,-0.00020228348,-0.002365633,0.0030725298,0.07693515,-0.41931912,0.7131648,-1.0493122,0.0739513,229.40294,338.3341,0.35778728,0.41109675,0.13606918,0.10511206,inf,inf,inf,inf,1,1,1,1,2,0,2,1,48,1,1,1,0,0
21800772000,21800772000,1036000,41.606704,-86.3556021,-176.78143,315.2342,-340.9716,0.000492924,0.00010286037,0.0,-2.9323983,5.2254195,-5.694991,-5.715957,-0.00020228348,-0.002365633,0.0030725298,0.05702377,-0.0077753416,0.08099706,-1.0494858,0.0739513,229.40294,341.2113,0.38038883,0.41538668,0.1466791,0.10830812,inf,inf,inf,inf,1,1,1,1,2,0,2,1,48,1,1,1,0,0
21801268000,21801268000,1036000,41.606704,-86.3556021,-178.22942,317.8565,-343.8088,0.000492924,0.00010286037,0.0,-2.9318175,5.214329,-5.702646,-5.7245774,-0.00020228348,-0.002365633,0.0030725298,0.0048956242,-0.056814004,0.058706783,-1.0497018,0.0739513,229.40294,344.04852,0.36178464,0.41197425,0.13782704,0.10569094,inf,inf,inf,inf,1,1,1,1,2,0,2,1,48,1,1,1,0,0
21801772000,21801772000,1036000,41.606704,-86.3556021,-179.7074,320.5212,-346.6887,0.000492924,0.00010286037,0.0,-2.9289796,5.2130275,-5.708909,-5.725044,-0.00020228348,-0.002365633,0.0030725298,-0.012835696,0.010148535,-0.006869498,-1.0492028,0.0739513,229.40294,346.9284,0.38600335,0.41652,0.14942189,0.10904563,inf,inf,inf,inf,1,1,1,1,2,0,2,1,48,1,1,1,0,0
21802268000,21802268000,1036000,41.606704,-86.3556021,-181.15457,323.14752,-349.51105,0.000492924,0.00010286037,0.0,-2.9195478,5.2124205,-5.7107635,-5.714088,-0.00020228348,-0.002365633,0.0030725298,-0.071987346,-0.03138682,-0.0614152,-1.0492823,0.0739513,229.40294,349.75076,0.36580145,0.41300264,0.13956729,0.10629712,inf,inf,inf,inf,1,1,1,1,2,0,2,1,48,1,1,1,0,0
21802772000,21802772000,1036000,41.606704,-86.3556021,-182.62495,325.81924,-352.39734,0.000492924,0.00010286037,0.0,-2.9122186,5.20728,-5.722241,-5.7286096,-0.00020228348,-0.002365633,0.0030725298,0.013582499,-0.060329575,-0.047388546,-1.0497669,0.0739513,229.40294,352.63705,0.36897892,0.41242144,0.14139813,0.10663026,inf,inf,inf,inf,1,1,1,1,2,0,2,1,48,1,1,1,0,0
21803268000,21803268000,1036000,41.606704,-86.3556021,-184.0739,328.4421,-355.2324,0.000492924,0.00010286037,0.0,-2.9115138,5.2094884,-5.7200394,-5.722141,-0.00020228348,-0.002365633,0.0030725298,-0.012838307,0.063583925,-0.12161216,-1.0496686,0.0739513,229.40294,355.4721,0.37105107,0.41415167,0.14233471,0.107076615,inf,inf,inf,inf,1,1,1,1,2,0,2,1,48,1,1,1,0,0
21803772000,21803772000,1036000,41.606704,-86.3556021,-185.54967,331.1108,-358.108,0.000492924,0.00010286037,0.0,-2.920707,5.206765,-5.7264714,-5.7211223,-0.00020228348,-0.002365633,0.0030725298,-0.24147311,0.15762031,-0.58493114,-1.0496382,0.0739513,229.40294,358.34772,0.3735326,0.4134745,0.1434087,0.10727935,inf,inf,inf,inf,1,1,1,1,2,0,2,1,48,1,1,1,0,0
21804268000,21804268000,1036000,41.606704,-86.3556021,-187.00438,333.73627,-360.93774,0.000492924,0.00010286037,0.0,-2.9255528,5.201501,-5.7238994,-5.7143784,-0.00020228348,-0.002365633,0.0030725298,0.057449084,-0.07202783,0.025929818,-1.049456,0.0739513,229.40294,361.17746,0.37628648,0.41525477,0.14497721,0.107811466,inf,inf,inf,inf,1,1,1,1,2,0,2,1,48,1,1,1,0,0
21804772000,21804772000,1036000,41.606704,-86.3556021,-188.47139,336.39642,-363.817,0.000492924,0.00010286037,0.0,-2.917663,5.20383,-5.7257385,-5.714659,-0.00020228348,-0.002365633,0.0030725298,-0.08752106,-0.04019834,0.05133723,-1.0495733,0.0739513,229.40294,364.0567,0.3781402,0.4145481,0.1454099,0.10791807,inf,inf,inf,inf,1,1,1,1,2,0,2,1,48,1,1,1,0,0
21805268000,21805268000,1036000,41.606704,-86.3556021,-189.92776,339.0209,-366.64172,0.000492924,0.00010286037,0.0,-2.925996,5.2108903,-5.7255936,-5.708651,-0.00020228348,-0.002365633,0.0030725298,0.0439542,-0.04504145,0.047255244,-1.0494943,0.0739513,229.40294,366.88144,0.3602123,0.41121414,0.1370759,0.105379805,inf,inf,inf,inf,1,1,1,1,2,0,2,1,48,1,1,1,0,0
21805772000,21805772000,1036000,41.606704,-86.3556021,-191.40721,341.6883,-369.52594,0.000492924,0.00010286037,0.0,-2.9245124,5.2158594,-5.7341857,-5.722438,-0.00020228348,-0.002365633,0.0030725298,-0.016074004,0.050931074,-0.02119417,-1.0493494,0.0739513,229.40294,369.76566,0.3843582,0.4185609,0.14878657,0.10906767,inf,inf,inf,inf,1,1,1,1,2,0,2,1,48,1,1,1,0,0
21806268000,21806268000,1036000,41.606704,-86.3556021,-192.85217,344.3066,-372.3695,0.000492924,0.00010286037,0.0,-2.918576,5.2210135,-5.7399282,-5.7302895,-0.00020228348,-0.002365633,0.0030725298,0.047847137,0.017432282,-0.08521049,-1.0497298,0.0739513,229.40294,372.60922,0.36453882,0.41199294,0.13910249,0.10598636,inf,inf,inf,inf,1,1,1,1,2,0,2,1,48,1,1,1,0,0
21806772000,21806772000,1036000,41.606704,-86.3556021,-194.21005,346.82596,-374.6756,0.000492924,0.00010286037,0.0,-2.1586337,4.290619,-2.69684,-2.6982386,-0.00020228348,-0.002365633,0.0030725298,4.0730596,-4.268661,5.969974,-1.0411601,0.0739513,229.40294,374.9153,0.36772543,0.41130346,0.13392226,0.10433741,inf,inf,inf,inf,1,1,1,1,2,0,2,1,48,1,1,1,0,0
21807268000,21807268000,1036000,41.606704,-86.3556021,-194.89238,348.39087,-375.6127,0.000492924,0.00010286037,0.0,-1.0109762,1.8489403,-1.3774318,-1.3949925,-0.00020228348,-0.002365633,0.0030725298,-0.012327036,-4.850112,-0.74242336,-1.0642574,0.0739513,229.40294,375.85242,0.3684732,0.41256496,0.14126211,0.098806016,inf,inf,inf,inf,1,1,1,1,2,0,2,1,48,1,1,1,0,0
21807772000,21807772000,1036000,41.606704,-86.3556021,-195.35252,348.95938,-376.29514,0.000492924,0.00010286037,0.0,-0.49202287,0.4070933,-1.1079786,-1.1031016,-0.00020228348,-0.002365633,0.0030725298,1.4415518,-1.1429338,0.82911724,-1.064742,0.0739513,229.40294,376.53485,0.3709385,0.4108346,0.15279755,0.09575628,inf,inf,inf,inf,1,1,1,1,2,0,2,1,48,1,1,1,0,0
21808268000,21808268000,1036000,41.606704,-86.3556021,-195.54416,349.12488,-376.75848,0.000492924,0.00010286037,0.0,-0.23258388,0.20315252,-0.7636765,-0.7355504,-0.00020228348,-0.002365633,0.0030725298,0.38356587,-0.7611238,1.7588537,-1.0606667,0.0739513,229.40294,376.9982,0.374007,0.4110559,0.15624824,0.094820745,inf,inf,inf,inf,1,1,1,1,2,0,2,1,48,1,1,1,0,0
21808772000,21808772000,1036000,41.606704,-86.3556021,-195.57574,349.0687,-376.9394,0.000492924,0.00010286037,0.0,0.27737147,-0.48782307,-0.12024142,-0.08819311,-0.00020228348,-0.002365633,0.0030725298,1.0258881,-1.7192229,0.8998456,-1.0614176,0.0739513,229.40294,377.1791,0.37622043,0.4087818,0.15941265,0.09560023,inf,inf,inf,inf,1,1,1,1,2,0,2,1,48,1,1,1,0,0
21809268000,21809268000,1036000,41.606704,-86.3556021,-195.3717,348.6255,-376.89352,0.000492924,0.00010286037,0.0,0.6499583,-1.2641882,0.30587775,0.32626608,-0.00020228348,-0.002365633,0.0030725298,0.69523036,-1.3841239,0.36842367,-1.0633858,0.0739513,229.40294,377.13324,0.35870826,0.40541476,0.15154484,0.09568147,inf,inf,inf,inf,1,1,1,1,2,0,2,1,48,1,1,1,0,0
21809772000,21809772000,1036000,41.606704,-86.3556021,-194.99702,347.8748,-376.63336,0.000492924,0.00010286037,0.0,0.8813309,-1.5880195,0.7605417,0.7644709,-0.00020228348,-0.002365633,0.0030725298,0.14769791,-0.3257966,0.62658256,-1.0531844,0.0739513,229.40294,376.87308,0.38230306,0.40695542,0.16491468,0.10079914,inf,inf,inf,inf,1,1,1,1,2,0,2,1,48,1,1,1,0,0
21810268000,21810268000,1036000,41.606704,-86.3556021,-194.55742,347.0313,-376.25336,0.000492924,0.00010286037,0.0,0.8739436,-1.6256155,0.8218292,0.8150639,-0.00020228348,-0.002365633,0.0030725298,0.017140485,0.32630855,0.37581,-1.0554113,0.0739513,229.40294,376.49307,0.36297768,0.4040488,0.15303433,0.10138728,inf,inf,inf,inf,1,1,1,1,2,0,2,1,48,1,1,1,0,0
21810772000,21810772000,1036000,41.606704,-86.3556021,-194.11061,346.2509,-375.80618,0.000492924,0.00010286037,0.0,0.8015528,-1.2590926,0.9975974,0.97950774,-0.00020228348,-0.002365633,0.0030725298,-0.24300657,0.946314,0.11415586,-1.04531,0.0739513,229.40294,376.0459,0.36688924,0.40280768,0.15600833,0.10474435,inf,inf,inf,inf,1,1,1,1,2,0,2,1,48,1,1,1,0,0
21811268000,21811268000,1036000,41.606704,-86.3556021,-193.72473,345.68723,-375.32178,0.000492924,0.00010286037,0.0,0.61047786,-0.9372013,1.0271575,1.0016011,-0.00020228348,-0.002365633,0.0030725298,-0.5673874,0.45982307,-0.060021937,-1.0504359,0.0739513,229.40294,375.5615,0.36837047,0.404066,0.15723324,0.10779336,inf,inf,inf,inf,1,1,1,1,2,0,2,1,48,1,1,1,0,0
21811772000,21811772000,1036000,41.606704,-86.3556021,-193.41916,345.25513,-374.8408,0.000492924,0.00010286037,0.0,0.43680942,-0.68726957,1.0604343,1.0123519,-0.00020228348,-0.002365633,0.0030725298,-0.32336262,0.5566006,0.10369524,-1.0516458,0.0739513,229.40294,375.0805,0.37166837,0.4062709,0.15968935,0.11098451,inf,inf,inf,inf,1,1,1,1,2,0,2,1,48,1,1,1,0,0
21812268000,21812268000,1036000,41.606704,-86.3556021,-193.20906,344.97266,-374.3476,0.000492924,0.00010286037,0.0,0.25663564,-0.4137027,1.078306,1.0206052,-0.00020228348,-0.002365633,0.0030725298,-0.4012897,0.46339086,0.026819231,-1.0522043,0.0739513,229.40294,374.5873,0.3737951,0.40564662,0.16029581,0.113271706,inf,inf,inf,inf,1,1,1,1,2,0,2,1,48,1,1,1,0,0
21812772000,21812772000,1036000,41.606704,-86.3556021,-193.07697,344.8157,-373.85974,0.000492924,0.00010286037,0.0,0.10468177,-0.19046156,1.0647346,0.9925767,-0.00020228348,-0.002365633,0.0030725298,-0.3105599,0.3862577,0.069105,-1.0524892,0.0739513,229.40294,374.09946,0.37642267,0.40598813,0.16039589,0.11530254,inf,inf,inf,inf,1,1,1,1,2,0,2,1,48,1,1,1,0,0
21813268000,21813268000,1036000,41.606704,-86.3556021,-193.019,344.76987,-373.38455,0.000492924,0.00010286037,0.0,0.0017631284,-0.059117105,1.0791179,0.99383974,-0.00020228348,-0.002365633,0.0030725298,-0.20442651,0.22519569,0.09896319,-1.0522292,0.0739513,229.40294,373.62427,0.35875714,0.4041179,0.14832026,0.11351403,inf,inf,inf,inf,1,1,1,1,2,0,2,1,48,1,1,1,0,0
21813772000,21813772000,1036000,41.606704,-86.3556021,-193.01639,344.77206,-372.8843,0.000492924,0.00010286037,0.0,-0.055350777,-0.0070228423,1.0771148,0.9941145,-0.00020228348,-0.002365633,0.0030725298,-0.098548084,-0.000736906,-0.0014454757,-1.0512861,0.0739513,229.40294,373.12402,0.3824931,0.4071701,0.15904956,0.11844513,inf,inf,inf,inf,1,1,1,1,2,0,2,1,48,1,1,1,0,0
21814268000,21814268000,1036000,41.606704,-86.3556021,-193.0315,344.78122,-372.39532,0.000492924,0.00010286037,0.0,-0.057984997,-0.004651266,1.0772876,0.99337685,-0.00020228348,-0.002365633,0.0030725298,-0.042318333,-0.008711541,-0.10578247,-1.0503229,0.0739513,229.40294,372.63504,0.3629626,0.40526664,0.14592206,0.115730986,inf,inf,inf,inf,1,1,1,1,2,0,2,1,48,1,1,1,0,0
21814772000,21814772000,1036000,41.606704,-86.3556021,-193.06252,344.7914,-371.88956,0.000492924,0.00010286037,0.0,-0.053290475,-0.008929113,1.0853155,1.0080253,-0.00020228348,-0.002365633,0.0030725298,0.14862724,-0.040986285,-0.09619823,-1.0497634,0.0739513,229.40294,372.12927,0.38823584,0.41459933,0.15719856,0.121107556,inf,inf,inf,inf,1,1,1,1,2,0,2,1,48,1,1,1,0,0
21815268000,21815268000,1036000,41.606704,-86.3556021,-193.0985,344.7955,-371.39185,0.000492924,0.00010286037,0.0,-0.033484,-0.023458086,1.0668365,0.9935321,-0.00020228348,-0.002365633,0.0030725298,0.13801387,-0.097712845,0.07584591,-1.0495954,0.0739513,229.40294,371.63156,0.36711732,0.40901685,0.14445738,0.11727214,inf,inf,inf,inf,1,1,1,1,2,0,2,1,48,1,1,1,0,0
21815772000,21815772000,1036000,41.606704,-86.3556021,-193.11972,344.7953,-370.89966,0.000492924,0.00010286037,0.0,-0.0017536585,-0.030301655,1.0672975,0.98713166,-0.00020228348,-0.002365633,0.0030725298,0.09401785,-0.04055851,0.034469116,-1.0494306,0.0739513,229.40294,371.13937,0.37029025,0.41254094,0.1451584,0.11823156,inf,inf,inf,inf,1,1,1,1,2,0,2,1,48,1,1,1,0,0
21816268000,21816268000,1036000,41.606704,-86.3556021,-193.12343,344.7851,-370.4021,0.000492924,0.00010286037,0.0,0.017819183,-0.035644487,1.0671529,0.99330276,-0.00020228348,-0.002365633,0.0030725298,0.0075283367,0.016284714,0.009405363,-1.0496598,0.0739513,229.40294,370.6418,0.37227428,0.41245177,0.14521858,0.11846881,inf,inf,inf,inf,1,1,1,1,2,0,2,1,48,1,1,1,0,0
21816772000,21816772000,1036000,41.606704,-86.3556021,-193.1255,344.7789,-369.90744,0.000492924,0.00010286037,0.0,0.02450159,-0.030463422,1.0646223,0.9886611,-0.00020228348,-0.002365633,0.0030725298,-0.006901397,-0.012789899,-0.005167972,-1.0499914,0.0739513,229.40294,370.14716,0.37470695,0.41563132,0.14578365,0.11907929,inf,inf,inf,inf,1,1,1,1,2,0,2,1,48,1,1,1,0,0
21817268000,21817268000,1036000,41.606704,-86.3556021,-193.1207,344.7644,-369.41376,0.000492924,0.00010286037,0.0,0.028954051,-0.026337506,1.0585868,0.9878776,-0.00020228348,-0.002365633,0.0030725298,0.012571587,0.10473486,-0.14926405,-1.0499036,0.0739513,229.40294,369.65347,0.3773341,0.41822723,0.1469689,0.11966697,inf,inf,inf,inf,1,1,1,1,2,0,2,1,48,1,1,1,0,0
21817772000,21817772000,1036000,41.606704,-86.3556021,-193.1118,344.74112,-368.9019,0.000492924,0.00010286037,0.0,0.025977843,-0.020053511,1.0475848,0.991239,-0.00020228348,-0.002365633,0.0030725298,-0.07076718,-0.033056132,-0.19783439,-1.0495106,0.0739513,229.40294,369.1416,0.37903965,0.4181242,0.14718294,0.11970139,inf,inf,inf,inf,1,1,1,1,2,0,2,1,48,1,1,1,0,0
21818268000,21818268000,1036000,41.606704,-86.3556021,-193.0999,344.71912,-368.39996,0.000492924,0.00010286037,0.0,0.017313968,-0.0035672938,1.0237764,0.97957844,-0.00020228348,-0.002365633,0.0030725298,-0.07206344,0.05566029,-0.51922077,-1.049642,0.0739513,229.40294,368.63968,0.36081246,0.41162503,0.13852926,0.11581462,inf,inf,inf,inf,1,1,1,1,2,0,2,1,48,1,1,1,0,0
21818772000,21818772000,1036000,41.606704,-86.3556021,-193.08907,344.70688,-367.90356,0.000492924,0.00010286037,0.0,0.0043511963,0.014528474,1.0330464,0.9889219,-0.00020228348,-0.002365633,0.0030725298,-0.005747826,0.06527166,0.09010725,-1.0500526,0.0739513,229.40294,368.14328,0.38503972,0.4205389,0.15045764,0.12064548,inf,inf,inf,inf,1,1,1,1,2,0,2,1,48,1,1,1,0,0
21819268000,21819268000,1036000,41.606704,-86.3556021,-193.0784,344.70285,-367.40762,0.000492924,0.00010286037,0.0,-0.003497328,0.023261014,1.0338397,0.99267805,-0.00020228348,-0.002365633,0.0030725298,-0.09844924,0.1189601,0.059165925,-1.0502352,0.0739513,229.40294,367.64734,0.36497915,0.41641816,0.14041416,0.1168366,inf,inf,inf,inf,1,1,1,1,2,0,2,1,48,1,1,1,0,0
21819772000,21819772000,1036000,41.606704,-86.3556021,-193.06049,344.70163,-366.9119,0.000492924,0.00010286037,0.0,-0.010974432,0.027322803,1.0416584,0.99525166,-0.00020228348,-0.002365633,0.0030725298,0.027535606,0.057054028,0.041192334,-1.0499336,0.0739513,229.40294,367.1516,0.36825037,0.41629085,0.1423242,0.11732337,inf,inf,inf,inf,1,1,1,1,2,0,2,1,48,1,1,1,0,0
21820268000,21820268000,1036000,41.606704,-86.3556021,-193.05148,344.70557,-366.41882,0.000492924,0.00010286037,0.0,-0.028556885,0.025808034,1.0454698,0.9967642,-0.00020228348,-0.002365633,0.0030725298,0.010993966,0.012040106,-0.011452536,-1.0500476,0.0739513,229.40294,366.65854,0.36929604,0.41826177,0.14239636,0.11762155,inf,inf,inf,inf,1,1,1,1,2,0,2,1,48,1,1,1,0,0
21820772000,21820772000,1036000,41.606704,-86.3556021,-193.04851,344.712,-365.9121,0.000492924,0.00010286037,0.0,-0.031482622,0.024649238,1.0486776,1.0022626,-0.00020228348,-0.002365633,0.0030725298,-0.15726571,-0.033020012,-0.11753949,-1.0500052,0.0739513,229.40294,366.15182,0.37205946,0.41788164,0.14383793,0.11796713,inf,inf,inf,inf,1,1,1,1,2,0,2,1,48,1,1,1,0,0
21821268000,21821268000,1036000,41.606704,-86.3556021,-193.04825,344.7122,-365.4091,0.000492924,0.00010286037,0.0,-0.03617739,0.016563315,1.039796,1.0004344,-0.00020228348,-0.002365633,0.0030725298,0.12853274,0.07061565,0.154267,-1.0499817,0.0739513,229.40294,365.6488,0.3750763,0.41990703,0.1457122,0.11867821,inf,inf,inf,inf,1,1,1,1,2,0,2,1,48,1,1,1,0,0
21821772000,21821772000,1036000,41.606704,-86.3556021,-193.05049,344.7135,-364.90616,0.000492924,0.00010286037,0.0,-0.033968695,0.020489814,1.0342187,0.9950344,-0.00020228348,-0.002365633,0.0030725298,0.060817465,-0.043407556,-0.002370279,-1.0498809,0.0739513,229.40294,365.14587,0.37718627,0.41928348,0.14639254,0.118862756,inf,inf,inf,inf,1,1,1,1,2,0,2,1,48,1,1,1,0,0
21822268000,21822268000,1036000,41.606704,-86.3556021,-193.0452,344.7126,-364.41122,0.000492924,0.00010286037,0.0,-0.033049114,0.013091669,1.0404525,1.0016654,-0.00020228348,-0.002365633,0.0030725298,-0.038685508,-0.014978505,0.030826714,-1.0499355,0.0739513,229.40294,364.65094,0.35945022,0.41523868,0.13789032,0.115477614,inf,inf,inf,inf,1,1,1,1,2,0,2,1,48,1,1,1,0,0
21822772000,21822772000,1036000,41.606704,-86.3556021,-193.04298,344.71298,-363.89984,0.000492924,0.00010286037,0.0,-0.03843004,0.013431767,1.0332377,1.0010543,-0.00020228348,-0.002365633,0.0030725298,-0.036495693,0.01369609,-0.038013853,-1.0498121,0.0739513,229.40294,364.13956,0.3822628,0.42060405,0.14860001,0.119754195,inf,inf,inf,inf,1,1,1,1,2,0,2,1,48,1,1,1,0,0
21823268000,21823268000,1036000,41.606704,-86.3556021,-193.03911,344.71036,-363.4023,0.000492924,0.00010286037,0.0,-0.038798805,0.011229921,1.0266249,0.99630994,-0.00020228348,-0.002365633,0.0030725298,0.013695424,0.017935097,-0.054428414,-1.0498043,0.0739513,229.40294,363.64203,0.36313847,0.4164658,0.13932675,0.11621724,inf,inf,inf,inf,1,1,1,1,2,0,2,1,48,1,1,1,0,0
21823764000,21823764000,1036000,41.606704,-86.3556021,-193.03627,344.71326,-362.9008,0.000492924,0.00010286037,0.0,-0.036469508,0.014630678,1.0254991,1.001036,-0.00020228348,-0.002365633,0.0030725298,-0.08268097,-0.08171279,-0.18993583,-1.0500132,0.0739513,229.40294,363.1405,0.36597347,0.41544694,0.14109568,0.11662595,inf,inf,inf,inf,1,1,1,1,2,0,2,1,48,1,1,1,0,0
21824268000,21824268000,1036000,41.606704,-86.3556021,-193.04129,344.71707,-362.38727,0.000492924,0.00010286037,0.0,-0.037961245,0.013685756,1.0222883,1.0061105,-0.00020228348,-0.002365633,0.0030725298,-0.13109118,-0.06343742,0.56977373,-1.0497606,0.0739513,229.40294,362.62698,0.36788896,0.41768464,0.1415847,0.117160305,inf,inf,inf,inf,1,1,1,1,2,0,2,1,48,1,1,1,0,0
21824772000,21824772000,1036000,41.606704,-86.3556021,-193.05087,344.72223,-361.87308,0.000492924,0.00010286037,0.0,-0.035610847,0.0163289,1.0034823,0.99696964,-0.00020228348,-0.002365633,0.0030725298,0.0026417975,0.027638527,-0.058387466,-1.0496838,0.0739513,229.40294,362.1128,0.37079826,0.41701388,0.14308836,0.117551625,inf,inf,inf,inf,1,1,1,1,2,0,2,1,48,1,1,1,0,0
21825268000,21825268000,1036000,41.606704,-86.3556021,-193.06223,344.728,-361.37662,0.000492924,0.00010286037,0.0,-0.02918665,0.020068912,0.9995623,0.994526,-0.00020228348,-0.002365633,0.0030725298,0.020666188,0.0726003,0.057573363,-1.0498493,0.0739513,229.40294,361.61633,0.37267104,0.41872534,0.14378738,0.11804463,inf,inf,inf,inf,1,1,1,1,2,0,2,1,48,1,1,1,0,0
21825772000,21825772000,1036000,41.606704,-86.3556021,-193.07283,344.72812,-360.87216,0.000492924,0.00010286037,0.0,-0.01684148,0.008890195,1.0014491,0.9973886,-0.00020228348,-0.002365633,0.0030725298,0.0031726647,0.027236223,-0.1283065,-1.0496508,0.0739513,229.40294,361.11188,0.375041,0.42095932,0.14466499,0.11865386,inf,inf,inf,inf,1,1,1,1,2,0,2,1,48,1,1,1,0,0
21826268000,21826268000,1036000,41.606704,-86.3556021,-193.07993,344.72064,-360.37057,0.000492924,0.00010286037,0.0,-0.01033974,0.009842858,0.9971377,0.9987285,-0.00020228348,-0.002365633,0.0030725298,-0.0029546514,0.07438168,-0.06725831,-1.0498297,0.0739513,229.40294,360.6103,0.35793278,0.4139262,0.13671868,0.11503273,inf,inf,inf,inf,1,1,1,1,2,0,2,1,48,1,1,1,0,0
21826772000,21826772000,1036000,41.606704,-86.3556021,-193.08646,344.7173,-359.8587,0.000492924,0.00010286037,0.0,-0.0030344091,0.01126166,0.98600584,0.9946097,-0.00020228348,-0.002365633,0.0030725298,0.080661766,0.00038407423,-0.042143337,-1.0499572,0.0739513,229.40294,360.09842,0.38063625,0.4220324,0.14740543,0.11966867,inf,inf,inf,inf,1,1,1,1,2,0,2,1,48,1,1,1,0,0
21827268000,21827268000,1036000,41.606704,-86.3556021,-193.08894,344.7035,-359.35226,0.000492924,0.00010286037,0.0,-0.00011031913,0.016429422,0.9831542,1.0016925,-0.00020228348,-0.002365633,0.0030725298,0.099349126,0.13192387,-0.18588272,-1.0497576,0.0739513,229.40294,359.59198,0.36194056,0.41480157,0.13839544,0.115819566,inf,inf,inf,inf,1,1,1,1,2,0,2,1,48,1,1,1,0,0
21827772000,21827772000,1036000,41.606704,-86.3556021,-193.09372,344.69394,-358.8471,0.000492924,0.00010286037,0.0,0.00046397213,0.030165436,0.96773475,0.98842674,-0.00020228348,-0.002365633,0.0030725298,-0.087973274,0.0526574,-0.5312609,-1.0496943,0.0739513,229.40294,359.08682,0.3862715,0.42324513,0.15006681,0.12068537,inf,inf,inf,inf,1,1,1,1,2,0,2,1,48,1,1,1,0,0
21828268000,21828268000,1036000,41.606704,-86.3556021,-193.08812,344.68747,-358.3609,0.000492924,0.00010286037,0.0,0.006398135,0.031040462,0.9784928,0.9920635,-0.00020228348,-0.002365633,0.0030725298,-0.0023445315,-0.066118546,-0.0042115035,-1.0499244,0.0739513,229.40294,358.60062,0.36596736,0.41871902,0.13996986,0.11694101,inf,inf,inf,inf,1,1,1,1,2,0,2,1,48,1,1,1,0,0
21828772000,21828772000,1036000,41.606704,-86.3556021,-193.08458,344.68344,-357.85614,0.000492924,0.00010286037,0.0,0.0019150604,0.03937096,0.9797816,0.9946846,-0.00020228348,-0.002365633,0.0030725298,0.017893592,0.07228056,0.05259824,-1.0497051,0.0739513,229.40294,358.09586,0.36915004,0.4181066,0.14170694,0.11743001,inf,inf,inf,inf,1,1,1,1,2,0,2,1,48,1,1,1,0,0
21829268000,21829268000,1036000,41.606704,-86.3556021,-193.07942,344.68484,-357.357,0.000492924,0.00010286037,0.0,0.00012286658,0.04152993,0.9787031,0.9967917,-0.00020228348,-0.002365633,0.0030725298,0.08975623,0.037739635,-0.0708914,-1.0498682,0.0739513,229.40294,357.5967,0.37121737,0.41693094,0.14261046,0.11765009,inf,inf,inf,inf,1,1,1,1,2,0,2,1,48,1,1,1,0,0
21829764000,21829764000,1036000,41.606704,-86.3556021,-193.08237,344.67868,-356.8597,0.000492924,0.00010286037,0.0,-0.006995247,0.040733315,0.9838504,1.0036095,-0.00020228348,-0.002365633,0.0030725298,-0.02648257,-0.0073088286,-0.11054339,-1.049994,0.0739513,229.40294,357.09943,0.37305,0.41872075,0.14333735,0.11815765,inf,inf,inf,inf,1,1,1,1,2,0,2,1,48,1,1,1,0,0
21830268000,21830268000,1036000,41.606704,-86.3556021,-193.08374,344.68112,-356.35413,0.000492924,0.00010286037,0.0,-0.0021555729,0.042117044,0.9794902,0.99927235,-0.00020228348,-0.002365633,0.0030725298,0.012999867,0.07201358,-0.097532816,-1.0498772,0.0739513,229.40294,356.59384,0.37650368,0.42120278,0.1451895,0.11902369,inf,inf,inf,inf,1,1,1,1,2,0,2,1,48,1,1,1,0,0
21830772000,21830772000,1036000,41.606704,-86.3556021,-193.08388,344.6869,-355.84564,0.000492924,0.00010286037,0.0,0.0010749679,0.04144949,0.97771925,1.0016717,-0.00020228348,-0.002365633,0.0030725298,0.14062026,0.06813356,0.10742333,-1.049963,0.0739513,229.40294,356.08536,0.37833634,0.42050657,0.1455719,0.11919069,inf,inf,inf,inf,1,1,1,1,2,0,2,1,48,1,1,1,0,0
21831268000,21831268000,1036000,41.606704,-86.3556021,-193.08035,344.68768,-355.3562,0.000492924,0.00010286037,0.0,0.0002430083,0.03734263,0.973902,0.992861,-0.00020228348,-0.002365633,0.0030725298,0.06687293,0.009035976,0.032328937,-1.0499065,0.0739513,229.40294,355.59592,0.36034343,0.4164328,0.13717821,0.115785345,inf,inf,inf,inf,1,1,1,1,2,0,2,1,48,1,1,1,0,0
21831772000,21831772000,1036000,41.606704,-86.3556021,-193.08057,344.696,-354.86234,0.000492924,0.00010286037,0.0,-0.007618178,0.037052687,0.9845807,0.99538326,-0.00020228348,-0.002365633,0.0030725298,-0.040081713,-0.050946727,-0.0017630567,-1.0501614,0.0739513,229.40294,355.10205,0.3845266,0.42205626,0.14878738,0.120372035,inf,inf,inf,inf,1,1,1,1,2,0,2,1,48,1,1,1,0,0
21832268000,21832268000,1036000,41.606704,-86.3556021,-193.07886,344.69943,-354.36862,0.000492924,0.00010286037,0.0,-0.011966633,0.023809781,0.9904827,0.99911517,-0.00020228348,-0.002365633,0.0030725298,0.025639951,-0.014705585,0.027954513,-1.0502734,0.0739513,229.40294,354.60834,0.36464846,0.41490576,0.13901784,0.116380215,inf,inf,inf,inf,1,1,1,1,2,0,2,1,48,1,1,1,0,0
21832772000,21832772000,1036000,41.606704,-86.3556021,-193.07536,344.69974,-353.8762,0.000492924,0.00010286037,0.0,-0.01188172,0.023206644,0.99998736,0.999324,-0.00020228348,-0.002365633,0.0030725298,-0.08630024,0.009556233,0.009877544,-1.0503803,0.0739513,229.40294,354.1159,0.36796698,0.41753715,0.14089705,0.117288195,inf,inf,inf,inf,1,1,1,1,2,0,2,1,48,1,1,1,0,0
21833268000,21833268000,1036000,41.606704,-86.3556021,-193.07004,344.7061,-353.37457,0.000492924,0.00010286037,0.0,-0.011952126,0.022593528,1.0031062,1.006154,-0.00020228348,-0.002365633,0.0030725298,-0.10758352,-0.09594927,-0.118974656,-1.0503294,0.0739513,229.40294,353.6143,0.3690546,0.41632244,0.14097121,0.117277674,inf,inf,inf,inf,1,1,1,1,2,0,2,1,48,1,1,1,0,0
21833772000,21833772000,1036000,41.606704,-86.3556021,-193.06146,344.71313,-352.8729,0.000492924,0.00010286037,0.0,-0.014391177,0.018716756,1.0025998,1.0048313,-0.00020228348,-0.002365633,0.0030725298,-0.122948036,-0.057007357,0.63094395,-1.0501814,0.0739513,229.40294,353.1126,0.37184268,0.41881436,0.14242616,0.11802058,inf,inf,inf,inf,1,1,1,1,2,0,2,1,48,1,1,1,0,0
21834268000,21834268000,1036000,41.606704,-86.3556021,-193.05351,344.71497,-352.38446,0.000492924,0.00010286037,0.0,-0.019772345,0.015000146,1.0035813,0.99923307,-0.00020228348,-0.002365633,0.0030725298,-0.05328074,0.05725744,0.07065565,-1.050155,0.0739513,229.40294,352.62418,0.374866,0.42077753,0.14422832,0.11876422,inf,inf,inf,inf,1,1,1,1,2,0,2,1,48,1,1,1,0,0
21834772000,21834772000,1036000,41.606704,-86.3556021,-193.05475,344.72107,-351.8834,0.000492924,0.00010286037,0.0,-0.028320124,0.01486896,1.0062512,0.99897784,-0.00020228348,-0.002365633,0.0030725298,-0.05395006,-0.04303524,0.06617785,-1.0498445,0.0739513,229.40294,352.1231,0.3768476,0.42011696,0.1447409,0.11895157,inf,inf,inf,inf,1,1,1,1,2,0,2,1,48,1,1,1,0,0
21835268000,21835268000,1036000,41.606704,-86.3556021,-193.06096,344.72122,-351.39636,0.000492924,0.00010286037,0.0,-0.02736251,0.0067597525,1.013775,0.99976146,-0.00020228348,-0.002365633,0.0030725298,0.0695996,-0.015554464,0.036022563,-1.0497593,0.0739513,229.40294,351.63608,0.35917294,0.4160272,0.1364548,0.115556344,inf,inf,inf,inf,1,1,1,1,2,0,2,1,48,1,1,1,0,0
21835772000,21835772000,1036000,41.606704,-86.3556021,-193.06541,344.7212,-350.8886,0.000492924,0.00010286037,0.0,-0.023954604,0.0077730617,1.0134819,1.0025713,-0.00020228348,-0.002365633,0.0030725298,-0.022356953,0.08449744,-0.023534583,-1.0503078,0.0739513,229.40294,351.12833,0.38186198,0.42132047,0.14701495,0.11983679,inf,inf,inf,inf,1,1,1,1,2,0,2,1,48,1,1,1,0,0
21836268000,21836268000,1036000,41.606704,-86.3556021,-193.0638,344.7216,-350.39908,0.000492924,0.00010286037,0.0,-0.018494135,0.01349182,1.0177054,1.0008289,-0.00020228348,-0.002365633,0.0030725298,-0.015778031,-0.0453184,-0.11049962,-1.0503005,0.0739513,229.40294,350.6388,0.36288702,0.4142628,0.13798565,0.115971975,inf,inf,inf,inf,1,1,1,1,2,0,2,1,48,1,1,1,0,0
21836772000,21836772000,1036000,41.606704,-86.3556021,-193.06229,344.72357,-349.89468,0.000492924,0.00010286037,0.0,-0.01870294,0.013486418,1.0189798,1.0027103,-0.00020228348,-0.002365633,0.0030725298,0.09568987,0.085090056,-0.2150415,-1.05019,0.0739513,229.40294,350.1344,0.36639428,0.41687402,0.14011288,0.11693004,inf,inf,inf,inf,1,1,1,1,2,0,2,1,48,1,1,1,0,0
21837268000,21837268000,1036000,41.606704,-86.3556021,-193.06563,344.72647,-349.39548,0.000492924,0.00010286037,0.0,-0.024768462,0.010454191,1.0164087,1.0024583,-0.00020228348,-0.002365633,0.0030725298,0.02725505,-0.037347447,0.041895483,-1.0503352,0.0739513,229.40294,349.6352,0.3676348,0.4157206,0.1403385,0.11697516,inf,inf,inf,inf,1,1,1,1,2,0,2,1,48,1,1,1,0,0
21837772000,21837772000,1036000,41.606704,-86.3556021,-193.06445,344.71783,-348.88654,0.000492924,0.00010286037,0.0,-0.018433478,0.009132834,1.0147576,1.0054404,-0.00020228348,-0.002365633,0.0030725298,0.0063254875,-0.0087781595,-0.017386924,-1.0503361,0.0739513,229.40294,349.12625,0.37053397,0.41818827,0.14184828,0.1177442,inf,inf,inf,inf,1,1,1,1,2,0,2,1,48,1,1,1,0,0
21838268000,21838268000,1036000,41.606704,-86.3556021,-193.06332,344.71164,-348.37747,0.000492924,0.00010286037,0.0,-0.020359326,0.016603336,1.0015179,1.0029466,-0.00020228348,-0.002365633,0.0030725298,0.021200685,0.086170375,0.015829625,-1.0502822,0.0739513,229.40294,348.6172,0.37240466,0.41995302,0.14266774,0.1182319,inf,inf,inf,inf,1,1,1,1,2,0,2,1,48,1,1,1,0,0
21838772000,21838772000,1036000,41.606704,-86.3556021,-193.05563,344.70297,-347.86557,0.000492924,0.00010286037,0.0,-0.020558948,0.01729699,0.986065,0.9940628,-0.00020228348,-0.002365633,0.0030725298,0.009298274,0.06908421,0.03135198,-1.0501182,0.0739513,229.40294,348.1053,0.3747736,0.4192044,0.14372456,0.11847679,inf,inf,inf,inf,1,1,1,1,2,0,2,1,48,1,1,1,0,0
21839268000,21839268000,1036000,41.606704,-86.3556021,-193.0496,344.69608,-347.37653,0.000492924,0.00010286037,0.0,-0.028893799,0.024614736,0.99294746,0.99574935,-0.00020228348,-0.002365633,0.0030725298,-0.051130965,0.010016729,-0.09278121,-1.0502894,0.0739513,229.40294,347.61624,0.35775715,0.41512373,0.13592711,0.115179546,inf,inf,inf,inf,1,1,1,1,2,0,2,1,48,1,1,1,0,0
21839772000,21839772000,1036000,41.606704,-86.3556021,-193.05176,344.69586,-346.87238,0.000492924,0.00010286037,0.0,-0.031329807,0.029118096,0.9985556,1.0026304,-0.00020228348,-0.002365633,0.0030725298,0.004408945,0.0032912372,-0.15182705,-1.0502499,0.0739513,229.40294,347.1121,0.3803564,0.42026848,0.14645448,0.11946191,inf,inf,inf,inf,1,1,1,1,2,0,2,1,48,1,1,1,0,0
21840268000,21840268000,1036000,41.606704,-86.3556021,-193.05115,344.6883,-346.3766,0.000492924,0.00010286037,0.0,-0.027862385,0.030606018,0.99428,0.99891675,-0.00020228348,-0.002365633,0.0030725298,-0.08324965,-0.010056516,-0.5726042,-1.0502403,0.0739513,229.40294,346.6163,0.36175832,0.41604367,0.13761872,0.115958914,inf,inf,inf,inf,1,1,1,1,2,0,2,1,48,1,1,1,0,0
21840772000,21840772000,1036000,41.606704,-86.3556021,-193.05664,344.6833,-345.86444,0.000492924,0.00010286037,0.0,-0.03329722,0.0338004,0.98835945,0.99964994,-0.00020228348,-0.002365633,0.0030725298,-0.035482027,0.06803145,0.021349574,-1.0502975,0.0739513,229.40294,346.10416,0.3860412,0.42449218,0.14926012,0.12082897,inf,inf,inf,inf,1,1,1,1,2,0,2,1,48,1,1,1,0,0
21841268000,21841268000,1036000,41.606704,-86.3556021,-193.0654,344.68484,-345.36328,0.000492924,0.00010286037,0.0,-0.032576527,0.038632426,0.981754,0.9980927,-0.00020228348,-0.002365633,0.0030725298,-0.057326395,0.043974955,0.041686866,-1.0503047,0.0739513,229.40294,345.603,0.36582783,0.4170108,0.13938534,0.11674519,inf,inf,inf,inf,1,1,1,1,2,0,2,1,48,1,1,1,0,0
21841772000,21841772000,1036000,41.606704,-86.3556021,-193.06851,344.6854,-344.85388,0.000492924,0.00010286037,0.0,-0.027866045,0.036592904,0.9742871,0.9956845,-0.00020228348,-0.002365633,0.0030725298,0.024545144,0.0014420886,-0.02627919,-1.0506393,0.0739513,229.40294,345.0936,0.36900267,0.41657037,0.14119989,0.11727003,inf,inf,inf,inf,1,1,1,1,2,0,2,1,48,1,1,1,0,0
21842268000,21842268000,1036000,41.606704,-86.3556021,-193.0705,344.69476,-344.3706,0.000492924,0.00010286037,0.0,-0.026800785,0.037730087,0.9785679,0.9902625,-0.00020228348,-0.002365633,0.0030725298,0.027871223,0.029409966,0.008834463,-1.0506551,0.0739513,229.40294,344.61032,0.37107033,0.41846308,0.14210804,0.11784963,inf,inf,inf,inf,1,1,1,1,2,0,2,1,48,1,1,1,0,0
21842772000,21842772000,1036000,41.606704,-86.3556021,-193.05847,344.7022,-343.8743,0.000492924,0.00010286037,0.0,-0.021159075,0.03133791,0.99621814,1.0011185,-0.00020228348,-0.002365633,0.0030725298,-0.10425665,0.05318885,-0.19244762,-1.0506238,0.0739513,229.40294,344.114,0.3736096,0.4178536,0.14314537,0.11817227,inf,inf,inf,inf,1,1,1,1,2,0,2,1,48,1,1,1,0,0
21843268000,21843268000,1036000,41.606704,-86.3556021,-193.04065,344.71112,-343.38547,0.000492924,0.00010286037,0.0,-0.025630778,0.023890626,1.0006858,0.998867,-0.00020228348,-0.002365633,0.0030725298,0.087451555,0.029726118,0.17776427,-1.0509195,0.0739513,229.40294,343.62518,0.37634426,0.41969958,0.14465067,0.11884061,inf,inf,inf,inf,1,1,1,1,2,0,2,1,48,1,1,1,0,0
21843772000,21843772000,1036000,41.606704,-86.3556021,-193.03159,344.71558,-342.88074,0.000492924,0.00010286037,0.0,-0.036452174,0.017463611,1.0043846,1.0031122,-0.00020228348,-0.002365633,0.0030725298,-0.05966744,-0.0014787846,-0.016748969,-1.0505929,0.0739513,229.40294,343.12045,0.37817872,0.41899145,0.14508712,0.11899785,inf,inf,inf,inf,1,1,1,1,2,0,2,1,48,1,1,1,0,0
21844268000,21844268000,1036000,41.606704,-86.3556021,-193.02293,344.71506,-342.37653,0.000492924,0.00010286037,0.0,-0.043995738,0.011110282,0.99576545,1.0012364,-0.00020228348,-0.002365633,0.0030725298,-0.049083658,0.0008314868,-0.016075622,-1.0505682,0.0739513,229.40294,342.61624,0.36024266,0.415048,0.13679647,0.11562885,inf,inf,inf,inf,1,1,1,1,2,0,2,1,48,1,1,1,0,0
21844772000,21844772000,1036000,41.606704,-86.3556021,-193.02571,344.7171,-341.87277,0.000492924,0.00010286037,0.0,-0.053003393,0.0086541,0.9922617,0.99796295,-0.00020228348,-0.002365633,0.0030725298,-0.00010611368,-0.017374685,0.036663312,-1.050411,0.0739513,229.40294,342.1125,0.3843666,0.42057163,0.14843477,0.12018033,inf,inf,inf,inf,1,1,1,1,2,0,2,1,48,1,1,1,0,0
21845268000,21845268000,1036000,41.606704,-86.3556021,-193.03745,344.71692,-341.3854,0.000492924,0.00010286037,0.0,-0.05042607,0.008175337,0.99646974,0.9949184,-0.00020228348,-0.002365633,0.0030725298,0.0400859,-0.09526112,-0.004100676,-1.0501802,0.0739513,229.40294,341.62512,0.3645494,0.4163573,0.13877073,0.11652863,inf,inf,inf,inf,1,1,1,1,2,0,2,1,48,1,1,1,0,0
21845772000,21845772000,1036000,41.606704,-86.3556021,-193.04152,344.7181,-340.88577,0.000492924,0.00010286037,0.0,-0.041120704,0.009843658,1.0047569,0.99988484,-0.00020228348,-0.002365633,0.0030725298,-0.010921305,-0.02325363,-0.106087945,-1.050111,0.0739513,229.40294,341.1255,0.36780626,0.4160281,0.14059803,0.117083065,inf,inf,inf,inf,1,1,1,1,2,0,2,1,48,1,1,1,0,0
21846268000,21846268000,1036000,41.606704,-86.3556021,-193.04977,344.7228,-340.39514,0.000492924,0.00010286037,0.0,-0.03745664,0.009789098,1.0128733,1.0038265,-0.00020228348,-0.002365633,0.0030725298,-0.21909977,-0.10129815,0.63440937,-1.0499836,0.0739513,229.40294,340.63486,0.3689103,0.4178463,0.14070402,0.11744033,inf,inf,inf,inf,1,1,1,1,2,0,2,1,48,1,1,1,0,0
21846772000,21846772000,1036000,41.606704,-86.3556021,-193.05644,344.7328,-339.8895,0.000492924,0.00010286037,0.0,-0.029058717,0.010438369,1.0129919,1.0055666,-0.00020228348,-0.002365633,0.0030725298,-0.019643782,-0.017821277,0.047434058,-1.0498941,0.0739513,229.40294,340.1292,0.3717045,0.4174439,0.14214586,0.117856614,inf,inf,inf,inf,1,1,1,1,2,0,2,1,48,1,1,1,0,0
21847268000,21847268000,1036000,41.606704,-86.3556021,-193.06221,344.7347,-339.38632,0.000492924,0.00010286037,0.0,-0.028178805,-0.002239342,1.0034636,1.0021129,-0.00020228348,-0.002365633,0.0030725298,0.0508204,-0.042132266,-0.021510819,-1.0498313,0.0739513,229.40294,339.62604,0.3747341,0.41946042,0.14399621,0.11861366,inf,inf,inf,inf,1,1,1,1,2,0,2,1,48,1,1,1,0,0
21847772000,21847772000,1036000,41.606704,-86.3556021,-193.06766,344.7347,-338.8899,0.000492924,0.00010286037,0.0,-0.020861069,-0.0019189953,0.9981336,0.990585,-0.00020228348,-0.002365633,0.0030725298,0.049143806,0.002562043,0.067101724,-1.0498824,0.0739513,229.40294,339.1296,0.3767293,0.42178616,0.14457157,0.119145215,inf,inf,inf,inf,1,1,1,1,2,0,2,1,48,1,1,1,0,0
21848268000,21848268000,1036000,41.606704,-86.3556021,-193.06793,344.7329,-338.39413,0.000492924,0.00010286037,0.0,-0.015092976,9.145022e-05,1.0095111,1.0031484,-0.00020228348,-0.002365633,0.0030725298,-0.0076535377,0.06388213,-0.042756148,-1.0502881,0.0739513,229.40294,338.63385,0.3591994,0.41468358,0.13643745,0.1154183,inf,inf,inf,inf,1,1,1,1,2,0,2,1,48,1,1,1,0,0
21848772000,21848772000,1036000,41.606704,-86.3556021,-193.07155,344.73016,-337.88977,0.000492924,0.00010286037,0.0,-0.013053947,0.0026218733,1.004927,0.9984355,-0.00020228348,-0.002365633,0.0030725298,0.008565324,-0.0048983865,-0.038972184,-1.0500113,0.0739513,229.40294,338.1295,0.38188487,0.42284605,0.14693189,0.12001434,inf,inf,inf,inf,1,1,1,1,2,0,2,1,48,1,1,1,0,0
21849268000,21849268000,1036000,41.606704,-86.3556021,-193.07262,344.71774,-337.3986,0.000492924,0.00010286037,0.0,-0.00801088,0.00576852,1.0092183,0.99850684,-0.00020228348,-0.002365633,0.0030725298,0.06345601,0.03224839,-0.0676029,-1.0500926,0.0739513,229.40294,337.6383,0.36290422,0.41547737,0.13792467,0.11607392,inf,inf,inf,inf,1,1,1,1,2,0,2,1,48,1,1,1,0,0
21849772000,21849772000,1036000,41.606704,-86.3556021,-193.07745,344.70773,-336.90338,0.000492924,0.00010286037,0.0,-0.008961257,0.011372399,1.0146277,0.9966039,-0.00020228348,-0.002365633,0.0030725298,0.21822345,0.18127751,0.31701466,-1.0499158,0.0739513,229.40294,337.1431,0.36640346,0.41782665,0.13999024,0.11697595,inf,inf,inf,inf,1,1,1,1,2,0,2,1,48,1,1,1,0,0
21850268000,21850268000,1036000,41.606704,-86.3556021,-193.08131,344.7069,-336.40714,0.000492924,0.00010286037,0.0,-0.0027929798,0.023040492,1.0207623,1.0021844,-0.00020228348,-0.002365633,0.0030725298,-0.017463006,0.06830481,0.07179,-1.0502429,0.0739513,229.40294,336.64685,0.36763793,0.41933224,0.14019604,0.11730706,inf,inf,inf,inf,1,1,1,1,2,0,2,1,48,1,1,1,0,0
21850772000,21850772000,1036000,41.606704,-86.3556021,-193.08328,344.70258,-335.90646,0.000492924,0.00010286037,0.0,-0.006608723,0.026712915,1.0187392,0.9973875,-0.00020228348,-0.002365633,0.0030725298,0.035310723,0.00016080683,-0.0015348827,-1.0501744,0.0739513,229.40294,336.14618,0.37052813,0.41866675,0.14169163,0.1177204,inf,inf,inf,inf,1,1,1,1,2,0,2,1,48,1,1,1,0,0
