timestamp,timestamp_sample,ref_timestamp,ref_lat,ref_lon,x,y,z,delta_xy[0],delta_xy[1],delta_z,vx,vy,vz,z_deriv,delta_vxy[0],delta_vxy[1],delta_vz,ax,ay,az,heading,delta_heading,ref_alt,dist_bottom,eph,epv,evh,evv,vxy_max,vz_max,hagl_min,hagl_max,xy_valid,z_valid,v_xy_valid,v_z_valid,xy_reset_counter,z_reset_counter,vxy_reset_counter,vz_reset_counter,heading_reset_counter,heading_good_for_control,xy_global,z_global,dist_bottom_valid,dist_bottom_sensor_bitfield
21726760000,21726760000,1024000,41.606704,-86.3556021,-0.6670501,-1.1546097,0.1318676,0.00058205053,2.1875936e-05,0.0,-0.004627125,-0.0047790543,-0.002007357,-0.00238951,-0.0004043681,-0.0023174433,0.0029783552,-0.027292168,-0.016597888,-0.022840748,-1.0660782,0.06309804,229.40309,0.10022847,0.04909079,0.055374354,0.012174572,0.008701059,inf,inf,inf,inf,1,1,1,1,2,0,2,1,47,0,1,1,1,0
21727256000,21727256000,1024000,41.606704,-86.3556021,-0.66599685,-1.1549022,0.13187246,0.00058205053,2.1875936e-05,0.0,-0.0031341438,-0.0017555151,-0.0012009017,-0.0011035692,-0.0004043681,-0.0023174433,0.0029783552,-0.041518807,0.044919014,0.025284411,-1.0658904,0.06309804,229.40309,0.100261524,0.04905451,0.055342756,0.017951393,0.012966007,inf,inf,inf,inf,1,1,1,1,2,0,2,1,47,0,1,1,1,0
21727760000,21727760000,1024000,41.606704,-86.3556021,-0.66566396,-1.1549312,0.13234486,0.00058205053,2.1875936e-05,0.0,-0.0031009389,-0.0029736978,-0.00029540499,0.0001067695,-0.0004043681,-0.0023174433,0.0029783552,-0.043680567,0.0065330598,0.039339002,-1.0659157,0.06309804,229.40309,0.100033626,0.049049783,0.055290896,0.008108813,0.0057622795,inf,inf,inf,inf,1,1,1,1,2,0,2,1,47,0,1,1,1,0
21728264000,21728264000,1024000,41.606704,-86.3556021,-0.6652681,-1.1540457,0.13256568,0.00058205053,2.1875936e-05,0.0,-0.0017314439,-0.0010095376,-0.00045316425,-0.00020866605,-0.0004043681,-0.0023174433,0.0029783552,-0.0016660701,-0.047777966,-0.010051827,-1.0658776,0.06309804,229.40309,0.1,0.04900397,0.055248074,0.015849568,0.0114007,inf,inf,inf,inf,1,1,1,1,2,0,2,1,47,0,1,1,1,0
21728760000,21728760000,1024000,41.606704,-86.3556021,-0.6658221,-1.1546837,0.13267887,0.00058205053,2.1875936e-05,0.0,-0.005706098,-0.0038655577,-0.0008960223,-0.0006999968,-0.0004043681,-0.0023174433,0.0029783552,0.029875228,0.015671961,0.04484312,-1.0658683,0.06309804,229.40309,0.1,0.049019847,0.055227466,0.0208212,0.015115775,inf,inf,inf,inf,1,1,1,1,2,0,2,1,47,0,1,1,1,0
21729264000,21729264000,1024000,41.606704,-86.3556021,-0.66560394,-1.1545988,0.13380502,0.00058205053,2.1875936e-05,0.0,-0.0005352796,-0.003048365,0.002167262,0.0021121637,-0.0004043681,-0.0023174433,0.0029783552,-0.02257845,0.081767306,-0.0069766003,-1.0660917,0.06309804,229.40309,0.1,0.04895791,0.055162795,0.012847074,0.009192707,inf,inf,inf,inf,1,1,1,1,2,0,2,1,47,0,1,1,1,0
21729760000,21729760000,1024000,41.606704,-86.3556021,-0.6653958,-1.1547287,0.13316089,0.00058205053,2.1875936e-05,0.0,-0.001580185,-0.0052640284,0.00041516742,-0.00011788095,-0.0004043681,-0.0023174433,0.0029783552,-0.054526184,-0.10155707,0.0692894,-1.0662314,0.06309804,229.40309,0.1,0.048954867,0.055133376,0.018461026,0.013342154,inf,inf,inf,inf,1,1,1,1,2,0,2,1,47,0,1,1,1,0
21730256000,21730256000,1024000,41.606704,-86.3556021,-0.66458905,-1.1550306,0.13177621,0.00058205053,2.1875936e-05,0.0,0.0012054965,-0.0024071473,0.000642841,0.0009777558,-0.0004043681,-0.0023174433,0.0029783552,-0.00387754,0.02363401,0.12618949,-1.0662317,0.06309804,229.40309,0.10092381,0.048917115,0.0550872,0.008108245,0.0057622767,inf,inf,inf,inf,1,1,1,1,2,0,2,1,47,0,1,1,1,0
21730760000,21730760000,1024000,41.606704,-86.3556021,-0.6640912,-1.1528519,0.13227397,0.00058205053,2.1875936e-05,0.0,0.003480952,0.0016757768,-0.0014396512,-0.0010857783,-0.0004043681,-0.0023174433,0.0029783552,-0.008929131,-0.082435235,-0.022431897,-1.065958,0.06309804,229.40309,0.10018438,0.048901297,0.055045143,0.015853701,0.011402338,inf,inf,inf,inf,1,1,1,1,2,0,2,1,47,0,1,1,1,0
21731256000,21731256000,1024000,41.606704,-86.3556021,-0.6638869,-1.1537418,0.1332691,0.00058205053,2.1875936e-05,0.0,0.006522002,-0.0013218977,0.0035046833,0.003775746,-0.0004043681,-0.0023174433,0.0029783552,-0.05134469,0.008040291,0.05700898,-1.0659838,0.06309804,229.40309,0.1,0.04888847,0.055018462,0.020800607,0.015109683,inf,inf,inf,inf,1,1,1,1,2,0,2,1,47,0,1,1,1,0
21731760000,21731760000,1024000,41.606704,-86.3556021,-0.6645139,-1.1541495,0.13306925,0.00058205053,2.1875936e-05,0.0,0.0004615242,0.00048471693,-0.00029344152,-0.00053137506,-0.0004043681,-0.0023174433,0.0029783552,-0.12760818,-0.025939394,0.28299347,-1.0662651,0.06309804,229.40309,0.1,0.048856206,0.054954503,0.012849175,0.009192891,inf,inf,inf,inf,1,1,1,1,2,0,2,1,47,0,1,1,1,0
21732264000,21732264000,1024000,41.606704,-86.3556021,-0.6655255,-1.1520853,0.13358153,0.00058205053,2.1875936e-05,0.0,0.0014720231,0.005072884,0.004921395,0.0047778757,-0.0004043681,-0.0023174433,0.0029783552,-0.012354365,0.105281055,0.061577115,-1.0667084,0.06309804,229.40309,0.1,0.04882897,0.054927897,0.01893546,0.013704621,inf,inf,inf,inf,1,1,1,1,2,0,2,1,47,0,1,1,1,0
21732760000,21732760000,1024000,41.606704,-86.3556021,-0.66681296,-1.1515994,0.13533051,0.00058205053,2.1875936e-05,0.0,-0.0042395256,0.0058022887,0.008239907,0.006404198,-0.0004043681,-0.0023174433,0.0029783552,-0.009726879,0.0037124283,-0.35012424,-1.0660177,0.06309804,229.40309,0.1,0.048787482,0.054880366,0.009055351,0.006442421,inf,inf,inf,inf,1,1,1,1,2,0,2,1,47,0,1,1,1,0
21733256000,21733256000,1024000,41.606704,-86.3556021,-0.6663238,-1.151761,0.13535163,0.00058205053,2.1875936e-05,0.0,-0.00023904242,0.005315315,0.011883203,0.00932334,-0.0004043681,-0.0023174433,0.0029783552,-0.13549015,-0.0016406801,0.88561314,-1.0655627,0.06309804,229.40309,0.1,0.04899853,0.054948747,0.02739397,0.020155666,inf,inf,inf,inf,1,1,1,1,2,0,2,1,47,0,1,1,1,0
21733760000,21733760000,1024000,41.606704,-86.3556021,-0.6661836,-1.1492242,0.13962938,0.00058205053,2.1875936e-05,0.0,0.0007246518,0.010018787,0.01703202,0.015506006,-0.0004043681,-0.0023174433,0.0029783552,0.101588875,0.061645824,-0.043416455,-1.0639206,0.06309804,229.40309,0.1,0.053405855,0.05723012,0.04850486,0.036709834,inf,inf,inf,inf,1,1,1,1,2,0,2,1,47,0,1,1,1,0
21734264000,21734264000,1024000,41.606704,-86.3556021,-0.6730075,-1.1421846,0.10334017,0.00058205053,2.1875936e-05,0.0,-0.031401716,0.018410156,-0.38880655,-0.38961935,-0.0004043681,-0.0023174433,0.0029783552,-0.12923914,-0.022741819,-2.2142613,-1.0657877,0.06309804,229.40309,0.1401335,0.06816492,0.06590649,0.06806716,0.0514745,inf,inf,inf,inf,1,1,1,1,2,0,2,1,47,0,1,1,1,0
21734760000,21734760000,1024000,41.606704,-86.3556021,-0.6888826,-1.1357038,-0.33967662,0.00058205053,2.1875936e-05,0.0,-0.021145513,0.0033874128,-1.387733,-1.3870374,-0.0004043681,-0.0023174433,0.0029783552,-0.18876563,-0.15143746,-0.5395338,-1.0653238,0.06309804,229.40309,0.58315027,0.09441242,0.08319839,0.08837123,0.06484982,inf,inf,inf,inf,1,1,1,1,2,0,2,1,47,0,1,1,1,0
21735256000,21735256000,1024000,41.606704,-86.3556021,-0.6930284,-1.1389028,-1.0538325,0.00058205053,2.1875936e-05,0.0,-0.0023644937,-0.013008976,-1.2028596,-1.2012811,-0.0004043681,-0.0023174433,0.0029783552,0.041102737,-0.063708104,1.3282539,-1.0651797,0.06309804,229.40309,1.2973062,0.12639251,0.10747854,0.10086757,0.0760647,inf,inf,inf,inf,1,1,1,1,2,0,2,1,47,0,1,1,1,0
21735760000,21735760000,1024000,41.606704,-86.3556021,-0.68978655,-1.1469142,-1.5304354,0.00058205053,2.1875936e-05,0.0,0.0023784793,-0.011304985,-0.7152691,-0.717821,-0.0004043681,-0.0023174433,0.0029783552,0.0114386575,-0.040923286,0.78243846,-1.0100759,0.07183822,229.40309,1.7739091,0.16846474,0.14020298,0.110037394,0.08828988,inf,inf,inf,inf,1,1,1,1,2,0,2,1,48,0,1,1,1,0
21736256000,21736256000,1024000,41.606704,-86.3556021,-0.6831936,-1.1557076,-1.8206612,0.00058205053,2.1875936e-05,0.0,0.00017517996,-0.0068359175,-0.43164104,-0.44235158,-0.0004043681,-0.0023174433,0.0029783552,-0.018749902,-0.0610086,0.43289354,-1.0280267,0.07183822,229.40309,2.0641348,0.19680305,0.17132533,0.11387557,0.095281,inf,inf,inf,inf,1,1,1,1,2,0,2,1,48,0,1,1,1,0
21736760000,21736760000,1024000,41.606704,-86.3556021,-0.6741922,-1.1581265,-2.0021567,0.00058205053,2.1875936e-05,0.0,-0.0028493614,-0.0016678451,-0.26311183,-0.27813938,-0.0004043681,-0.0023174433,0.0029783552,0.004329139,-0.08767343,0.19479722,-1.0393982,0.07183822,229.40309,2.2456305,0.22842497,0.20649368,0.12973154,0.10272975,inf,inf,inf,inf,1,1,1,1,2,0,2,1,48,1,1,1,1,0
21737264000,21737264000,1024000,41.606704,-86.3556021,-0.6734101,-1.1582655,-2.1175582,0.00058205053,2.1875936e-05,0.0,-0.014745487,-0.00023571227,-0.16039659,-0.17783232,-0.0004043681,-0.0023174433,0.0029783552,-0.06381053,0.01558328,0.051394973,-1.0435383,0.07183822,229.40309,2.361032,0.25677595,0.24012785,0.14406118,0.10798771,inf,inf,inf,inf,1,1,1,1,2,0,2,1,48,1,1,1,1,0
21737760000,21737760000,1024000,41.606704,-86.3556021,-0.671276,-1.1590986,-2.1230552,0.00058205053,2.1875936e-05,0.0,-0.011115331,-0.0031652474,0.09155246,0.075905845,-0.0004043681,-0.0023174433,0.0029783552,-0.043709017,0.08146224,-0.2814457,-1.046646,0.07183822,229.40309,2.366529,0.28207576,0.27075696,0.15466258,0.11161194,inf,inf,inf,inf,1,1,1,1,2,0,2,1,48,1,1,1,1,0
21738264000,21738264000,1024000,41.606704,-86.3556021,-0.6715005,-1.1433386,-2.1292505,0.00058205053,2.1875936e-05,0.0,-0.014757248,0.08011993,-0.13210036,-0.14655128,-0.0004043681,-0.0023174433,0.0029783552,0.009026065,0.44639197,-0.59815127,-1.0513101,0.07183822,229.40309,2.3727243,0.30473998,0.29982764,0.16234805,0.11431175,inf,inf,inf,inf,1,1,1,1,2,0,2,1,48,1,1,1,0,0
21738760000,21738760000,1024000,41.606704,-86.3556021,-0.671838,-1.0133901,-2.2735126,0.00058205053,2.1875936e-05,0.0,-0.013779296,0.5167511,-0.433696,-0.44263768,-0.0004043681,-0.0023174433,0.0029783552,-0.000156607,1.2874721,-0.42023513,-1.0503947,0.07183822,229.40309,2.5169864,0.32278296,0.32462597,0.1659908,0.11570429,inf,inf,inf,inf,1,1,1,1,2,0,2,1,48,1,1,1,0,0
21739264000,21739264000,1024000,41.606704,-86.3556021,-0.66494167,-0.5648884,-2.5606036,0.00058205053,2.1875936e-05,0.0,-0.11961279,1.3289628,-0.73671603,-0.7522972,-0.0004043681,-0.0023174433,0.0029783552,-1.0484211,2.3139796,-2.238372,-1.0462914,0.07183822,229.40309,2.8040774,0.3204476,0.33700973,0.15673496,0.11263375,inf,inf,inf,inf,1,1,1,1,2,0,2,1,48,1,1,1,0,0
21739760000,21739760000,1024000,41.606704,-86.3556021,-0.91403264,0.34351906,-3.147676,0.00058205053,2.1875936e-05,0.0,-1.0312915,2.2879725,-1.5760804,-1.5860564,-0.0004043681,-0.0023174433,0.0029783552,-1.5319266,1.4592644,-1.6292073,-1.0500331,0.07183822,229.40309,3.3911498,0.3526939,0.36373347,0.17929718,0.11643995,inf,inf,inf,inf,1,1,1,1,2,0,2,1,48,1,1,1,0,0
21740264000,21740264000,1024000,41.606704,-86.3556021,-1.4975612,1.6650469,-4.1259694,0.00058205053,2.1875936e-05,0.0,-1.4874285,2.8496873,-2.3475606,-2.3418608,-0.0004043681,-0.0023174433,0.0029783552,-0.57914925,0.9385061,-1.6153706,-1.052943,0.07183822,229.40309,4.369443,0.34166688,0.36877304,0.16362977,0.11245022,inf,inf,inf,inf,1,1,1,1,2,0,2,1,48,1,1,1,0,0
21740760000,21740760000,1024000,41.606704,-86.3556021,-2.2632008,3.2080224,-5.4493117,0.00058205053,2.1875936e-05,0.0,-1.7265561,3.2259436,-3.001735,-2.9921856,-0.0004043681,-0.0023174433,0.0029783552,-0.37355205,0.6150634,-1.0346818,-1.0514274,0.07183822,229.40309,5.6927853,0.37310156,0.39007255,0.17508511,0.116291136,inf,inf,inf,inf,1,1,1,1,2,0,2,1,48,1,1,1,0,0
21741256000,21741256000,1024000,41.606704,-86.3556021,-3.1474972,4.9235983,-7.0592003,0.00058205053,2.1875936e-05,0.0,-1.9045343,3.5372353,-3.526229,-3.510291,-0.0004043681,-0.0023174433,0.0029783552,-0.3044795,0.5348339,-0.9469921,-1.0505669,0.07183822,229.40309,7.302674,0.35518312,0.3892493,0.15439482,0.11215906,inf,inf,inf,inf,1,1,1,1,2,0,2,1,48,1,1,1,0,0
21741760000,21741760000,1024000,41.606704,-86.3556021,-4.141332,6.8059387,-8.934195,0.00058205053,2.1875936e-05,0.0,-2.0628083,3.7998264,-3.945398,-3.9279034,-0.0004043681,-0.0023174433,0.0029783552,-0.29112077,0.48090094,-0.66919625,-1.0489538,0.07183822,229.40309,9.177669,0.36180776,0.39854172,0.15171927,0.112798065,inf,inf,inf,inf,1,1,1,1,2,0,2,1,48,1,1,1,0,0
21742264000,21742264000,1024000,41.606704,-86.3556021,-5.2159886,8.796065,-11.014223,0.00058205053,2.1875936e-05,0.0,-2.191901,4.017193,-4.2842836,-4.278139,-0.0004043681,-0.0023174433,0.0029783552,-0.26515064,0.38449448,-0.5420242,-1.0479021,0.07183822,229.40309,11.257697,0.36705336,0.40367675,0.14939333,0.11310656,inf,inf,inf,inf,1,1,1,1,2,0,2,1,48,1,1,1,0,0
21742760000,21742760000,1024000,41.606704,-86.3556021,-6.3416553,10.857202,-13.216232,0.00058205053,2.1875936e-05,0.0,-2.3158832,4.1959333,-4.552437,-4.556136,-0.0004043681,-0.0023174433,0.0029783552,-0.1866725,0.37218025,-0.55069387,-1.0474696,0.07183822,229.40309,13.459706,0.37051523,0.40945387,0.14757617,0.11376616,inf,inf,inf,inf,1,1,1,1,2,0,2,1,48,1,1,1,0,0
21743256000,21743256000,1024000,41.606704,-86.3556021,-7.5157905,12.993665,-15.542218,0.00058205053,2.1875936e-05,0.0,-2.4071357,4.3486624,-4.76391,-4.776137,-0.0004043681,-0.0023174433,0.0029783552,-0.094609186,0.398752,-0.55644757,-1.047135,0.07183822,229.40309,15.785692,0.37440464,0.4116208,0.14755233,0.11430248,inf,inf,inf,inf,1,1,1,1,2,0,2,1,48,1,1,1,0,0
21743760000,21743760000,1024000,41.606704,-86.3556021,-8.749771,15.235034,-18.000425,0.00058205053,2.1875936e-05,0.0,-2.4851906,4.478552,-4.9432883,-4.956984,-0.0004043681,-0.0023174433,0.0029783552,-0.036016528,0.18002571,-0.0687149,-1.0469959,0.07183822,229.40309,18.243898,0.3768624,0.41342515,0.14710921,0.11478209,inf,inf,inf,inf,1,1,1,1,2,0,2,1,48,1,1,1,0,0
21744264000,21744264000,1024000,41.606704,-86.3556021,-10.025614,17.53736,-20.540182,0.00058205053,2.1875936e-05,0.0,-2.5436313,4.593006,-5.07957,-5.099264,-0.0004043681,-0.0023174433,0.0029783552,-0.07782044,0.3128449,-0.24165404,-1.0469136,0.07183822,229.40309,20.783655,0.35972053,0.4084618,0.13859116,0.11193426,inf,inf,inf,inf,1,1,1,1,2,0,2,1,48,1,1,1,0,0
21744760000,21744760000,1024000,41.606704,-86.3556021,-11.311057,19.858461,-23.104795,0.00058205053,2.1875936e-05,0.0,-2.6014233,4.694009,-5.1924124,-5.2159033,-0.0004043681,-0.0023174433,0.0029783552,-0.09021499,0.19627346,-0.17175177,-1.0472517,0.07183822,229.40309,23.348269,0.3835482,0.41821545,0.15059064,0.11668108,inf,inf,inf,inf,1,1,1,1,2,0,2,1,48,1,1,1,0,0
21745264000,21745264000,1024000,41.606704,-86.3556021,-12.64765,22.256224,-25.75476,0.00058205053,2.1875936e-05,0.0,-2.6527581,4.7790933,-5.279252,-5.301223,-0.0004043681,-0.0023174433,0.0029783552,-0.034723807,0.14480457,-0.20897952,-1.0472863,0.07183822,229.40309,25.998234,0.36447248,0.4123648,0.141301,0.11343719,inf,inf,inf,inf,1,1,1,1,2,0,2,1,48,1,1,1,0,0
21745760000,21745760000,1024000,41.606704,-86.3556021,-13.988058,24.64876,-28.399738,0.00058205053,2.1875936e-05,0.0,-2.7005095,4.846575,-5.353517,-5.3714924,-0.0004043681,-0.0023174433,0.0029783552,-0.18127523,0.1702053,-0.28134048,-1.0473423,0.07183822,229.40309,28.643211,0.36709887,0.41506356,0.14330816,0.114334315,inf,inf,inf,inf,1,1,1,1,2,0,2,1,48,1,1,1,0,0
21746264000,21746264000,1024000,41.606704,-86.3556021,-15.3709135,27.115936,-31.111673,0.00058205053,2.1875936e-05,0.0,-2.7421238,4.905017,-5.4063478,-5.4166427,-0.0004043681,-0.0023174433,0.0029783552,-0.24984947,0.10174614,-0.15542474,-1.0470333,0.07183822,229.40309,31.355146,0.36886206,0.41500962,0.14400811,0.11461774,inf,inf,inf,inf,1,1,1,1,2,0,2,1,48,1,1,1,0,0
21746760000,21746760000,1024000,41.606704,-86.3556021,-16.751907,29.570183,-33.813843,0.00058205053,2.1875936e-05,0.0,-2.7754138,4.9550757,-5.4614205,-5.4730654,-0.0004043681,-0.0023174433,0.0029783552,-0.030205024,-0.00429181,0.083495796,-1.0465521,0.07183822,229.40309,34.057316,0.37085614,0.4172015,0.1453486,0.11518974,inf,inf,inf,inf,1,1,1,1,2,0,2,1,48,1,1,1,0,0
21747264000,21747264000,1024000,41.606704,-86.3556021,-18.168888,32.09066,-36.58857,0.00058205053,2.1875936e-05,0.0,-2.7985985,5.0046906,-5.508745,-5.524383,-0.0004043681,-0.0023174433,0.0029783552,-0.0886805,0.058607947,-0.06717822,-1.0464269,0.07183822,229.40309,36.832043,0.37450308,0.41707382,0.14780298,0.115689665,inf,inf,inf,inf,1,1,1,1,2,0,2,1,48,1,1,1,0,0
21747760000,21747760000,1024000,41.606704,-86.3556021,-19.576582,34.59692,-39.337135,0.00058205053,2.1875936e-05,0.0,-2.8241193,5.044425,-5.5458403,-5.5583878,-0.0004043681,-0.0023174433,0.0029783552,0.09121666,0.08432915,-0.028207028,-1.0460066,0.07183822,229.40309,39.58061,0.37585056,0.41907856,0.14818217,0.11597606,inf,inf,inf,inf,1,1,1,1,2,0,2,1,48,1,1,1,0,0
21748264000,21748264000,1024000,41.606704,-86.3556021,-21.024982,37.157116,-42.14482,0.00058205053,2.1875936e-05,0.0,-2.8427088,5.07584,-5.583561,-5.5933867,-0.0004043681,-0.0023174433,0.0029783552,-0.08337551,0.009646675,-0.031122997,-1.0463071,0.07183822,229.40309,42.388294,0.35896966,0.41311038,0.13990915,0.11254851,inf,inf,inf,inf,1,1,1,1,2,0,2,1,48,1,1,1,0,0
21748760000,21748760000,1024000,41.606704,-86.3556021,-22.457516,39.68688,-44.912285,0.00058205053,2.1875936e-05,0.0,-2.8624015,5.0989547,-5.606905,-5.606126,-0.0004043681,-0.0023174433,0.0029783552,0.04114482,-0.012123665,-0.029043356,-1.0461161,0.07183822,229.40309,45.155758,0.38098982,0.42088082,0.15069689,0.116492175,inf,inf,inf,inf,1,1,1,1,2,0,2,1,48,1,1,1,0,0
21749264000,21749264000,1024000,41.606704,-86.3556021,-23.926193,42.273514,-47.730087,0.00058205053,2.1875936e-05,0.0,-2.8824315,5.1221313,-5.629034,-5.618727,-0.0004043681,-0.0023174433,0.0029783552,-0.022098618,0.09186274,-0.15534,-1.0455813,0.07183822,229.40309,47.97356,0.36259982,0.41451663,0.14127856,0.11274303,inf,inf,inf,inf,1,1,1,1,2,0,2,1,48,1,1,1,0,0
21749760000,21749760000,1024000,41.606704,-86.3556021,-25.37509,44.83877,-50.510174,0.00058205053,2.1875936e-05,0.0,-2.8930817,5.1455646,-5.638403,-5.6205974,-0.0004043681,-0.0023174433,0.0029783552,-0.09741328,0.23031178,-0.17552549,-1.0455391,0.07183822,229.40309,50.753647,0.3654194,0.41358143,0.14303869,0.11279141,inf,inf,inf,inf,1,1,1,1,2,0,2,1,48,1,1,1,0,0
21750256000,21750256000,1024000,41.606704,-86.3556021,-26.82797,47.408623,-53.305023,0.00058205053,2.1875936e-05,0.0,-2.9089158,5.165473,-5.653776,-5.6377697,-0.0004043681,-0.0023174433,0.0029783552,0.039193038,0.07675209,0.020401487,-1.0457069,0.07183822,229.40309,53.548496,0.36676753,0.4153933,0.14318705,0.112846375,inf,inf,inf,inf,1,1,1,1,2,0,2,1,48,1,1,1,0,0
21750760000,21750760000,1024000,41.606704,-86.3556021,-28.315813,50.035038,-56.13753,0.00058205053,2.1875936e-05,0.0,-2.9192255,5.1899586,-5.657886,-5.63496,-0.0004043681,-0.0023174433,0.0029783552,-0.007498533,0.022008939,0.018568644,-1.0456191,0.07183822,229.40309,56.381004,0.36977836,0.41491765,0.144644,0.112870604,inf,inf,inf,inf,1,1,1,1,2,0,2,1,48,1,1,1,0,0
21751256000,21751256000,1024000,41.606704,-86.3556021,-29.777042,52.625473,-58.939777,0.00058205053,2.1875936e-05,0.0,-2.9296472,5.2062626,-5.658943,-5.642687,-0.0004043681,-0.0023174433,0.0029783552,-0.024087848,-0.03510584,0.011986058,-1.0464206,0.07183822,229.40309,59.18325,0.3716805,0.41668913,0.14522386,0.11296224,inf,inf,inf,inf,1,1,1,1,2,0,2,1,48,1,1,1,0,0
21751760000,21751760000,1024000,41.606704,-86.3556021,-31.265566,55.257652,-61.78515,0.00058205053,2.1875936e-05,0.0,-2.9392383,5.216437,-5.6602483,-5.6459317,-0.0004043681,-0.0023174433,0.0029783552,-0.03650266,-0.016211854,-0.027547652,-1.0463867,0.07183822,229.40309,62.02862,0.37408283,0.41892433,0.14608961,0.11313916,inf,inf,inf,inf,1,1,1,1,2,0,2,1,48,1,1,1,0,0
21752256000,21752256000,1024000,41.606704,-86.3556021,-32.732834,57.853523,-64.592316,0.00058205053,2.1875936e-05,0.0,-2.951973,5.223625,-5.6609745,-5.6528106,-0.0004043681,-0.0023174433,0.0029783552,0.029998928,-0.004681692,-0.038023166,-1.0461321,0.07183822,229.40309,64.83579,0.3569485,0.41218355,0.13771458,0.10955071,inf,inf,inf,inf,1,1,1,1,2,0,2,1,48,1,1,1,0,0
21752760000,21752760000,1024000,41.606704,-86.3556021,-34.227238,60.49588,-67.444855,0.00058205053,2.1875936e-05,0.0,-2.9626918,5.2322335,-5.6580772,-5.6523123,-0.0004043681,-0.0023174433,0.0029783552,-0.049407165,0.051583096,-0.21008873,-1.046042,0.07183822,229.40309,67.68833,0.3796787,0.4197484,0.14860937,0.11317854,inf,inf,inf,inf,1,1,1,1,2,0,2,1,48,1,1,1,0,0
21753264000,21753264000,1024000,41.606704,-86.3556021,-35.71932,63.147537,-70.300224,0.00058205053,2.1875936e-05,0.0,-2.9778912,5.242019,-5.6609554,-5.66155,-0.0004043681,-0.0023174433,0.0029783552,0.12663974,-0.07780219,0.2820519,-1.046185,0.07183822,229.40309,70.5437,0.36171484,0.4133677,0.13962074,0.10964855,inf,inf,inf,inf,1,1,1,1,2,0,2,1,48,1,1,1,0,0
21753760000,21753760000,1024000,41.606704,-86.3556021,-37.18861,65.754524,-73.11871,0.00058205053,2.1875936e-05,0.0,-2.9806013,5.246592,-5.653283,-5.6632333,-0.0004043681,-0.0023174433,0.0029783552,-0.012125221,0.03653296,0.027912604,-1.0461175,0.07183822,229.40309,73.36219,0.3854253,0.4204756,0.15114786,0.11322863,inf,inf,inf,inf,1,1,1,1,2,0,2,1,48,1,1,1,0,0
21754264000,21754264000,1024000,41.606704,-86.3556021,-38.683693,68.403496,-75.97489,0.00058205053,2.1875936e-05,0.0,-2.9838405,5.2569532,-5.6443167,-5.6569653,-0.0004043681,-0.0023174433,0.0029783552,0.006557989,0.04405418,0.019960972,-1.0466366,0.07183822,229.40309,76.21837,0.3657128,0.41686553,0.1410246,0.10992749,inf,inf,inf,inf,1,1,1,1,2,0,2,1,48,1,1,1,0,0
21754760000,21754760000,1024000,41.606704,-86.3556021,-40.150135,71.010544,-78.77888,0.00058205053,2.1875936e-05,0.0,-2.9833906,5.2625213,-5.6316786,-5.6442246,-0.0004043681,-0.0023174433,0.0029783552,-0.030286564,0.05718112,0.020999396,-1.0467545,0.07183822,229.40309,79.022354,0.3681704,0.4154133,0.14237964,0.109798394,inf,inf,inf,inf,1,1,1,1,2,0,2,1,48,1,1,1,0,0
21755256000,21755256000,1024000,41.606704,-86.3556021,-41.62433,73.617615,-81.58599,0.00058205053,2.1875936e-05,0.0,-2.9935956,5.266198,-5.6248503,-5.645031,-0.0004043681,-0.0023174433,0.0029783552,-0.052274656,0.0695184,-0.020649347,-1.0470566,0.07183822,229.40309,81.82947,0.37026182,0.41682008,0.14325579,0.109942764,inf,inf,inf,inf,1,1,1,1,2,0,2,1,48,1,1,1,0,0
21755760000,21755760000,1024000,41.606704,-86.3556021,-43.127354,76.269104,-84.4457,0.00058205053,2.1875936e-05,0.0,-3.0164878,5.2653766,-5.628368,-5.658473,-0.0004043681,-0.0023174433,0.0029783552,-0.16908662,-0.048382476,-0.14188798,-1.0468832,0.07183822,229.40309,84.68918,0.37282053,0.41584668,0.14434955,0.109880574,inf,inf,inf,inf,1,1,1,1,2,0,2,1,48,1,1,1,0,0
21756256000,21756256000,1024000,41.606704,-86.3556021,-44.606823,78.879974,-87.25993,0.00058205053,2.1875936e-05,0.0,-3.017289,5.2733617,-5.62727,-5.6631236,-0.0004043681,-0.0023174433,0.0029783552,0.10399879,-0.0876893,0.23646739,-1.047187,0.07183822,229.40309,87.50341,0.37564656,0.4173566,0.14591481,0.110173404,inf,inf,inf,inf,1,1,1,1,2,0,2,1,48,1,1,1,0,0
21756760000,21756760000,1024000,41.606704,-86.3556021,-46.112095,81.535614,-90.11206,0.00058205053,2.1875936e-05,0.0,-3.0149846,5.2740107,-5.6150446,-5.6521487,-0.0004043681,-0.0023174433,0.0029783552,-0.0031572026,0.0536819,0.054473925,-1.0471069,0.07183822,229.40309,90.35554,0.37741652,0.41639543,0.14618306,0.11002555,inf,inf,inf,inf,1,1,1,1,2,0,2,1,48,1,1,1,0,0
21757264000,21757264000,1024000,41.606704,-86.3556021,-47.611973,84.19592,-92.97005,0.00058205053,2.1875936e-05,0.0,-3.0083556,5.276342,-5.6111813,-5.6562366,-0.0004043681,-0.0023174433,0.0029783552,-0.056370504,0.03224952,0.07403728,-1.0474701,0.07183822,229.40309,93.213524,0.3600413,0.41328835,0.1378478,0.1072545,inf,inf,inf,inf,1,1,1,1,2,0,2,1,48,1,1,1,0,0
21757760000,21757760000,1024000,41.606704,-86.3556021,-49.09076,86.81171,-95.79103,0.00058205053,2.1875936e-05,0.0,-3.0109854,5.2693973,-5.611955,-5.666836,-0.0004043681,-0.0023174433,0.0029783552,-0.0074088275,-0.02269652,0.042184193,-1.047535,0.07183822,229.40309,96.03451,0.38350195,0.4172376,0.1493143,0.1104485,inf,inf,inf,inf,1,1,1,1,2,0,2,1,48,1,1,1,0,0
21758264000,21758264000,1024000,41.606704,-86.3556021,-50.59282,89.472984,-98.64834,0.00058205053,2.1875936e-05,0.0,-3.0042858,5.2678976,-5.605593,-5.6623464,-0.0004043681,-0.0023174433,0.0029783552,0.022864085,0.07456134,-0.014091903,-1.0473268,0.07183822,229.40309,98.891815,0.36445212,0.41402495,0.13982128,0.10757704,inf,inf,inf,inf,1,1,1,1,2,0,2,1,48,1,1,1,0,0
21758760000,21758760000,1024000,41.606704,-86.3556021,-52.07653,92.09772,-101.4664,0.00058205053,2.1875936e-05,0.0,-3.0018122,5.2672977,-5.601211,-5.665907,-0.0004043681,-0.0023174433,0.0029783552,-0.029522106,0.06700419,-0.07025065,-1.0475249,0.07183822,229.40309,101.70988,0.36710143,0.41277906,0.14135508,0.10764518,inf,inf,inf,inf,1,1,1,1,2,0,2,1,48,1,1,1,0,0
21759264000,21759264000,1024000,41.606704,-86.3556021,-53.585403,94.76783,-104.31559,0.00058205053,2.1875936e-05,0.0,-2.9958978,5.274472,-5.586901,-5.646579,-0.0004043681,-0.0023174433,0.0029783552,-0.06996005,-0.029258635,-0.07467816,-1.0479048,0.07183822,229.40309,104.55907,0.36882323,0.41485637,0.1416635,0.10793102,inf,inf,inf,inf,1,1,1,1,2,0,2,1,48,1,1,1,0,0
21759760000,21759760000,1024000,41.606704,-86.3556021,-55.067097,97.394356,-107.12809,0.00058205053,2.1875936e-05,0.0,-2.996019,5.285208,-5.5858045,-5.6536484,-0.0004043681,-0.0023174433,0.0029783552,-0.031554084,0.02924791,0.105175115,-1.0475478,0.07183822,229.40309,107.37157,0.37086517,0.41365194,0.14267921,0.1079359,inf,inf,inf,inf,1,1,1,1,2,0,2,1,48,1,1,1,0,0
21760264000,21760264000,1024000,41.606704,-86.3556021,-56.58019,100.0703,-109.99355,0.00058205053,2.1875936e-05,0.0,-2.9946938,5.2986445,-5.5874443,-5.6662493,-0.0004043681,-0.0023174433,0.0029783552,0.04791143,0.086454436,-0.05811459,-1.0477269,0.07183822,229.40309,110.23703,0.3745533,0.41605195,0.1447899,0.108569294,inf,inf,inf,inf,1,1,1,1,2,0,2,1,48,1,1,1,0,0
21760760000,21760760000,1024000,41.606704,-86.3556021,-58.070625,102.70479,-112.81013,0.00058205053,2.1875936e-05,0.0,-2.987862,5.305194,-5.5930505,-5.6765823,-0.0004043681,-0.0023174433,0.0029783552,-0.00735615,0.0373318,-0.03092742,-1.0477866,0.07183822,229.40309,113.053604,0.37590358,0.4147604,0.14503334,0.10845833,inf,inf,inf,inf,1,1,1,1,2,0,2,1,48,1,1,1,0,0
21761256000,21761256000,1024000,41.606704,-86.3556021,-59.558647,105.33395,-115.6397,0.00058205053,2.1875936e-05,0.0,-2.9869266,5.3084636,-5.601776,-5.69268,-0.0004043681,-0.0023174433,0.0029783552,-0.014832336,0.005990066,0.0125355385,-1.047667,0.07183822,229.40309,115.88318,0.35836214,0.4114183,0.13677615,0.105810076,inf,inf,inf,inf,1,1,1,1,2,0,2,1,48,1,1,1,0,0
21761760000,21761760000,1024000,41.606704,-86.3556021,-61.06913,108.00705,-118.504684,0.00058205053,2.1875936e-05,0.0,-2.986688,5.312366,-5.600417,-5.685165,-0.0004043681,-0.0023174433,0.0029783552,-0.016512368,0.061988056,0.05142012,-1.0478542,0.07183822,229.40309,118.74816,0.38099033,0.41582713,0.14736828,0.1089776,inf,inf,inf,inf,1,1,1,1,2,0,2,1,48,1,1,1,0,0
21762264000,21762264000,1024000,41.606704,-86.3556021,-62.58485,110.68029,-121.37408,0.00058205053,2.1875936e-05,0.0,-2.9848566,5.3144727,-5.6056714,-5.691922,-0.0004043681,-0.0023174433,0.0029783552,0.112892084,0.115161985,-0.07675408,-1.0480822,0.07183822,229.40309,121.61755,0.36267757,0.41281867,0.1385311,0.10633879,inf,inf,inf,inf,1,1,1,1,2,0,2,1,48,1,1,1,0,0
21762760000,21762760000,1024000,41.606704,-86.3556021,-64.07329,113.30706,-124.21293,0.00058205053,2.1875936e-05,0.0,-2.979621,5.31695,-5.61281,-5.7081127,-0.0004043681,-0.0023174433,0.0029783552,0.044489212,0.021223333,0.029688636,-1.0479909,0.07183822,229.40309,124.456406,0.36551666,0.4116356,0.140329,0.106522925,inf,inf,inf,inf,1,1,1,1,2,0,2,1,48,1,1,1,0,0
21763264000,21763264000,1024000,41.606704,-86.3556021,-65.57673,115.98378,-127.07787,0.00058205053,2.1875936e-05,0.0,-2.9738414,5.3194466,-5.6164956,-5.699609,-0.0004043681,-0.0023174433,0.0029783552,-0.033004392,-0.059199043,0.12010701,-1.0479057,0.07183822,229.40309,127.32135,0.36749956,0.41377378,0.14091201,0.1069303,inf,inf,inf,inf,1,1,1,1,2,0,2,1,48,1,1,1,0,0
21763760000,21763760000,1024000,41.606704,-86.3556021,-67.06211,118.626305,-129.90694,0.00058205053,2.1875936e-05,0.0,-2.9706085,5.324758,-5.625143,-5.7074823,-0.0004043681,-0.0023174433,0.0029783552,0.006753067,-0.010336059,0.06560695,-1.0481179,0.07183822,229.40309,130.1504,0.36976147,0.41249716,0.1421086,0.107007466,inf,inf,inf,inf,1,1,1,1,2,0,2,1,48,1,1,1,0,0
21764264000,21764264000,1024000,41.606704,-86.3556021,-68.56953,121.31026,-132.78304,0.00058205053,2.1875936e-05,0.0,-2.9751742,5.3323116,-5.6354313,-5.7147555,-0.0004043681,-0.0023174433,0.0029783552,-0.0045225057,-0.0009297036,-0.028844053,-1.0483555,0.07183822,229.40309,133.0265,0.3723103,0.4146198,0.14318784,0.1074985,inf,inf,inf,inf,1,1,1,1,2,0,2,1,48,1,1,1,0,0
21764760000,21764760000,1024000,41.606704,-86.3556021,-70.05507,123.95484,-135.61586,0.00058205053,2.1875936e-05,0.0,-2.9713218,5.331718,-5.640273,-5.716579,-0.0004043681,-0.0023174433,0.0029783552,0.057806496,-0.00070029777,-0.05505333,-1.0485002,0.07183822,229.40309,135.85933,0.3738848,0.41333982,0.1437422,0.10749203,inf,inf,inf,inf,1,1,1,1,2,0,2,1,48,1,1,1,0,0
21765264000,21765264000,1024000,41.606704,-86.3556021,-71.56524,126.64283,-138.48816,0.00058205053,2.1875936e-05,0.0,-2.9785202,5.3275256,-5.6385064,-5.708134,-0.0004043681,-0.0023174433,0.0029783552,0.0018453646,-0.03920006,-0.10482228,-1.0482622,0.07183822,229.40309,138.73163,0.35747707,0.41066387,0.13613792,0.10514047,inf,inf,inf,inf,1,1,1,1,2,0,2,1,48,1,1,1,0,0
21765760000,21765760000,1024000,41.606704,-86.3556021,-73.04653,129.2845,-141.31604,0.00058205053,2.1875936e-05,0.0,-2.9823318,5.31808,-5.648098,-5.713117,-0.0004043681,-0.0023174433,0.0029783552,0.16218211,-0.14246592,0.29832676,-1.0480901,0.07183822,229.40309,141.55951,0.37937516,0.4173015,0.14649768,0.108517624,inf,inf,inf,inf,1,1,1,1,2,0,2,1,48,1,1,1,0,0
21766264000,21766264000,1024000,41.606704,-86.3556021,-74.56146,131.96904,-144.19412,0.00058205053,2.1875936e-05,0.0,-2.9834397,5.314586,-5.646371,-5.7103057,-0.0004043681,-0.0023174433,0.0029783552,-0.08279623,-0.038647003,0.001095172,-1.048607,0.07183822,229.40309,144.43759,0.3615348,0.41142988,0.13794039,0.10567802,inf,inf,inf,inf,1,1,1,1,2,0,2,1,48,1,1,1,0,0
21766760000,21766760000,1024000,41.606704,-86.3556021,-76.05452,134.61221,-147.02365,0.00058205053,2.1875936e-05,0.0,-2.9919019,5.3172855,-5.647548,-5.708672,-0.0004043681,-0.0023174433,0.0029783552,0.01015086,-0.04318162,-0.002716731,-1.0483582,0.07183822,229.40309,147.26712,0.38503408,0.41822502,0.14924218,0.10920258,inf,inf,inf,inf,1,1,1,1,2,0,2,1,48,1,1,1,0,0
21767264000,21767264000,1024000,41.606704,-86.3556021,-77.56313,137.29422,-149.89989,0.00058205053,2.1875936e-05,0.0,-2.9875474,5.313443,-5.653564,-5.711702,-0.0004043681,-0.0023174433,0.0029783552,-0.018591044,0.04027147,-0.022911528,-1.0485243,0.07183822,229.40309,150.14336,0.36548695,0.4122438,0.13955875,0.106220566,inf,inf,inf,inf,1,1,1,1,2,0,2,1,48,1,1,1,0,0
21767760000,21767760000,1024000,41.606704,-86.3556021,-79.04534,139.93517,-152.7348,0.00058205053,2.1875936e-05,0.0,-2.980734,5.315349,-5.652959,-5.7136025,-0.0004043681,-0.0023174433,0.0029783552,-0.0013447748,0.08574113,-0.040238783,-1.0483783,0.07183822,229.40309,152.97827,0.36791822,0.41384158,0.14099394,0.106694914,inf,inf,inf,inf,1,1,1,1,2,0,2,1,48,1,1,1,0,0
21768256000,21768256000,1024000,41.606704,-86.3556021,-80.530136,142.57933,-155.5649,0.00058205053,2.1875936e-05,0.0,-2.9810238,5.3143024,-5.651449,-5.70861,-0.0004043681,-0.0023174433,0.0029783552,-0.05456706,-0.019843988,-0.120312035,-1.048264,0.07183822,229.40309,155.80836,0.36882368,0.41245043,0.14097309,0.10661484,inf,inf,inf,inf,1,1,1,1,2,0,2,1,48,1,1,1,0,0
21768760000,21768760000,1024000,41.606704,-86.3556021,-82.04047,145.26758,-158.44577,0.00058205053,2.1875936e-05,0.0,-2.9796476,5.3107176,-5.658349,-5.7175007,-0.0004043681,-0.0023174433,0.0029783552,-0.047451526,-0.1781211,0.2509029,-1.0482838,0.07183822,229.40309,158.68924,0.37144506,0.41464415,0.1423245,0.10717317,inf,inf,inf,inf,1,1,1,1,2,0,2,1,48,1,1,1,0,0
21769256000,21769256000,1024000,41.606704,-86.3556021,-83.53238,147.92368,-161.27635,0.00058205053,2.1875936e-05,0.0,-2.9829662,5.315835,-5.6587143,-5.7133746,-0.0004043681,-0.0023174433,0.0029783552,0.034642957,0.07108707,-0.01687004,-1.0481988,0.07183822,229.40309,161.51982,0.37432626,0.4135002,0.14410503,0.107409485,inf,inf,inf,inf,1,1,1,1,2,0,2,1,48,1,1,1,0,0
21769760000,21769760000,1024000,41.606704,-86.3556021,-85.04231,150.61691,-164.14993,0.00058205053,2.1875936e-05,0.0,-2.977118,5.309778,-5.661769,-5.7111974,-0.0004043681,-0.0023174433,0.0029783552,0.014832569,0.0102554085,0.032214385,-1.0483553,0.07183822,229.40309,164.3934,0.37625885,0.41570184,0.14467193,0.107866295,inf,inf,inf,inf,1,1,1,1,2,0,2,1,48,1,1,1,0,0
21770264000,21770264000,1024000,41.606704,-86.3556021,-86.55763,153.31589,-167.0247,0.00058205053,2.1875936e-05,0.0,-2.9761689,5.3091283,-5.671074,-5.715953,-0.0004043681,-0.0023174433,0.0029783552,0.010765789,-0.035937652,-0.021000454,-1.0481626,0.07183822,229.40309,167.26817,0.3592637,0.41023082,0.13676825,0.10520342,inf,inf,inf,inf,1,1,1,1,2,0,2,1,48,1,1,1,0,0
21770760000,21770760000,1024000,41.606704,-86.3556021,-88.045296,155.96426,-169.85783,0.00058205053,2.1875936e-05,0.0,-2.9796712,5.2975855,-5.6818795,-5.7233458,-0.0004043681,-0.0023174433,0.0029783552,0.015576367,0.025654308,-0.05729782,-1.0480989,0.07183822,229.40309,170.1013,0.38113907,0.41409743,0.14700304,0.1082612,inf,inf,inf,inf,1,1,1,1,2,0,2,1,48,1,1,1,0,0
21771264000,21771264000,1024000,41.606704,-86.3556021,-89.5568,158.66039,-172.74005,0.00058205053,2.1875936e-05,0.0,-2.9717417,5.3005486,-5.689277,-5.727148,-0.0004043681,-0.0023174433,0.0029783552,0.029274749,-0.047916126,-0.054853097,-1.0481505,0.07183822,229.40309,172.98352,0.36273456,0.4113662,0.13818805,0.10576825,inf,inf,inf,inf,1,1,1,1,2,0,2,1,48,1,1,1,0,0
21771760000,21771760000,1024000,41.606704,-86.3556021,-91.04284,161.31386,-175.57626,0.00058205053,2.1875936e-05,0.0,-2.969336,5.3034825,-5.693155,-5.7261405,-0.0004043681,-0.0023174433,0.0029783552,-0.027302051,0.12763305,-0.08726033,-1.0482124,0.07183822,229.40309,175.81973,0.36546326,0.41040453,0.13994889,0.106043264,inf,inf,inf,inf,1,1,1,1,2,0,2,1,48,1,1,1,0,0
21772264000,21772264000,1024000,41.606704,-86.3556021,-92.55261,164.00883,-178.4582,0.00058205053,2.1875936e-05,0.0,-2.969357,5.3015065,-5.70257,-5.7298517,-0.0004043681,-0.0023174433,0.0029783552,-0.028066054,-0.030453319,0.039312925,-1.0483186,0.07183822,229.40309,178.70168,0.36742163,0.4099365,0.14057766,0.10623453,inf,inf,inf,inf,1,1,1,1,2,0,2,1,48,1,1,1,0,0
21772760000,21772760000,1024000,41.606704,-86.3556021,-94.03748,166.66325,-181.29584,0.00058205053,2.1875936e-05,0.0,-2.9693992,5.2972956,-5.7086744,-5.731186,-0.0004043681,-0.0023174433,0.0029783552,-0.049858354,-0.100282036,0.028951028,-1.0485692,0.07183822,229.40309,181.5393,0.36966306,0.41183373,0.14181006,0.10673632,inf,inf,inf,inf,1,1,1,1,2,0,2,1,48,1,1,1,0,0
21773256000,21773256000,1024000,41.606704,-86.3556021,-95.519806,169.31508,-184.13757,0.00058205053,2.1875936e-05,0.0,-2.9715068,5.298419,-5.713003,-5.734279,-0.0004043681,-0.0023174433,0.0029783552,0.052919775,-0.030867605,0.011824008,-1.0486604,0.07183822,229.40309,184.38104,0.37156275,0.41087118,0.14259383,0.10686291,inf,inf,inf,inf,1,1,1,1,2,0,2,1,48,1,1,1,0,0
21773760000,21773760000,1024000,41.606704,-86.3556021,-97.016785,172.00728,-187.02168,0.00058205053,2.1875936e-05,0.0,-2.9675272,5.295505,-5.7170925,-5.7333426,-0.0004043681,-0.0023174433,0.0029783552,0.01585752,0.048265804,-0.05117251,-1.0489676,0.07183822,229.40309,187.26515,0.37382603,0.4132503,0.14352556,0.10738777,inf,inf,inf,inf,1,1,1,1,2,0,2,1,48,1,1,1,0,0
21774256000,21774256000,1024000,41.606704,-86.3556021,-98.48875,174.65845,-189.86183,0.00058205053,2.1875936e-05,0.0,-2.9654713,5.2849207,-5.730719,-5.7428246,-0.0004043681,-0.0023174433,0.0029783552,-0.0622048,0.006569426,-0.20210171,-1.048667,0.07183822,229.40309,190.1053,0.35684884,0.4101423,0.13571037,0.10493009,inf,inf,inf,inf,1,1,1,1,2,0,2,1,48,1,1,1,0,0
21774760000,21774760000,1024000,41.606704,-86.3556021,-99.99011,177.34135,-192.7577,0.00058205053,2.1875936e-05,0.0,-2.9712043,5.278513,-5.7377405,-5.749096,-0.0004043681,-0.0023174433,0.0029783552,0.039026413,0.10195317,-0.09024056,-1.0481753,0.07183822,229.40309,193.00117,0.37935737,0.41448745,0.14636795,0.10813768,inf,inf,inf,inf,1,1,1,1,2,0,2,1,48,1,1,1,0,0
21775256000,21775256000,1024000,41.606704,-86.3556021,-101.47792,179.9918,-195.59135,0.00058205053,2.1875936e-05,0.0,-2.9715781,5.2800784,-5.742475,-5.738411,-0.0004043681,-0.0023174433,0.0029783552,-0.028507952,0.024787875,0.06651592,-1.0486434,0.07183822,229.40309,195.83482,0.36086816,0.4110722,0.13751012,0.10550781,inf,inf,inf,inf,1,1,1,1,2,0,2,1,48,1,1,1,0,0
21775760000,21775760000,1024000,41.606704,-86.3556021,-102.98515,182.68193,-198.47797,0.00058205053,2.1875936e-05,0.0,-2.9760942,5.275892,-5.7484736,-5.7402015,-0.0004043681,-0.0023174433,0.0029783552,0.014952846,-0.06669715,0.05440035,-1.0491174,0.07183822,229.40309,198.72144,0.38499492,0.4183886,0.14914112,0.10916218,inf,inf,inf,inf,1,1,1,1,2,0,2,1,48,1,1,1,0,0
21776256000,21776256000,1024000,41.606704,-86.3556021,-104.46223,185.32544,-201.30453,0.00058205053,2.1875936e-05,0.0,-2.9746978,5.2712765,-5.750629,-5.72655,-0.0004043681,-0.0023174433,0.0029783552,0.0070061493,-0.034624927,0.030202726,-1.048851,0.07183822,229.40309,201.548,0.36479095,0.4118197,0.13914968,0.106033005,inf,inf,inf,inf,1,1,1,1,2,0,2,1,48,1,1,1,0,0
21776760000,21776760000,1024000,41.606704,-86.3556021,-105.968254,188.01674,-204.17688,0.00058205053,2.1875936e-05,0.0,-2.977896,5.273176,-5.7543297,-5.7207875,-0.0004043681,-0.0023174433,0.0029783552,0.038676213,-0.046127524,-0.05333318,-1.0482192,0.07183822,229.40309,204.42035,0.36788958,0.4112395,0.14092858,0.106372125,inf,inf,inf,inf,1,1,1,1,2,0,2,1,48,1,1,1,0,0
21777264000,21777264000,1024000,41.606704,-86.3556021,-107.470215,190.69421,-207.06476,0.00058205053,2.1875936e-05,0.0,-2.978259,5.2655387,-5.7618275,-5.7324953,-0.0004043681,-0.0023174433,0.0029783552,-0.032721557,0.020315152,-0.0909642,-1.0485933,0.07183822,229.40309,207.30823,0.37065923,0.41345727,0.14223787,0.10695496,inf,inf,inf,inf,1,1,1,1,2,0,2,1,48,1,1,1,0,0
21777760000,21777760000,1024000,41.606704,-86.3556021,-108.95394,193.33342,-209.89815,0.00058205053,2.1875936e-05,0.0,-2.9768243,5.2626386,-5.7588477,-5.72266,-0.0004043681,-0.0023174433,0.0029783552,-0.09448465,-0.011222699,-0.16905466,-1.0482774,0.07183822,229.40309,210.14162,0.3725041,0.41503516,0.14303355,0.107338,inf,inf,inf,inf,1,1,1,1,2,0,2,1,48,1,1,1,0,0
21778256000,21778256000,1024000,41.606704,-86.3556021,-110.43558,195.97574,-212.7211,0.00058205053,2.1875936e-05,0.0,-2.9766884,5.2615647,-5.7565765,-5.7109804,-0.0004043681,-0.0023174433,0.0029783552,0.12159576,-0.14457773,0.26545107,-1.0482068,0.07183822,229.40309,212.96457,0.37530488,0.41667256,0.14463404,0.10785478,inf,inf,inf,inf,1,1,1,1,2,0,2,1,48,1,1,1,0,0
21778760000,21778760000,1024000,41.606704,-86.3556021,-111.93687,198.65271,-215.61172,0.00058205053,2.1875936e-05,0.0,-2.979592,5.25674,-5.75639,-5.722898,-0.0004043681,-0.0023174433,0.0029783552,-0.037920453,-0.051838268,0.021305801,-1.0481582,0.07183822,229.40309,215.8552,0.37707546,0.41577977,0.14499454,0.10792788,inf,inf,inf,inf,1,1,1,1,2,0,2,1,48,1,1,1,0,0
21779264000,21779264000,1024000,41.606704,-86.3556021,-113.44218,201.34425,-218.49466,0.00058205053,2.1875936e-05,0.0,-2.974606,5.260624,-5.757151,-5.7230206,-0.0004043681,-0.0023174433,0.0029783552,-0.03190388,0.016738007,-0.0804328,-1.0485173,0.07183822,229.40309,218.73813,0.35992476,0.41014585,0.13698213,0.10522975,inf,inf,inf,inf,1,1,1,1,2,0,2,1,48,1,1,1,0,0
21779760000,21779760000,1024000,41.606704,-86.3556021,-114.91227,203.98015,-221.3219,0.00058205053,2.1875936e-05,0.0,-2.971789,5.2585244,-5.753546,-5.712197,-0.0004043681,-0.0023174433,0.0029783552,0.03479021,-0.12974568,-0.08555135,-1.0487604,0.07183822,229.40309,221.56537,0.38324305,0.41415265,0.14830026,0.108489275,inf,inf,inf,inf,1,1,1,1,2,0,2,1,48,1,1,1,0,0
21780264000,21780264000,1024000,41.606704,-86.3556021,-116.41454,206.65852,-224.20685,0.00058205053,2.1875936e-05,0.0,-2.975392,5.258652,-5.758483,-5.7210817,-0.0004043681,-0.0023174433,0.0029783552,0.035577707,-0.058474712,-0.0065323594,-1.0487698,0.07183822,229.40309,224.45032,0.364297,0.41135362,0.13903233,0.10596367,inf,inf,inf,inf,1,1,1,1,2,0,2,1,48,1,1,1,0,0
21780760000,21780760000,1024000,41.606704,-86.3556021,-117.891205,209.29517,-227.03812,0.00058205053,2.1875936e-05,0.0,-2.9760096,5.255319,-5.754727,-5.7131753,-0.0004043681,-0.0023174433,0.0029783552,-0.0986705,-0.026238665,-0.14138599,-1.0488914,0.07183822,229.40309,227.28159,0.36692378,0.41308615,0.14060397,0.10650016,inf,inf,inf,inf,1,1,1,1,2,0,2,1,48,1,1,1,0,0
21781264000,21781264000,1024000,41.606704,-86.3556021,-119.38662,211.96544,-229.91327,0.00058205053,2.1875936e-05,0.0,-2.9784758,5.249419,-5.744055,-5.7012553,-0.0004043681,-0.0023174433,0.0029783552,-0.024645733,-0.007347932,-0.13138358,-1.0489923,0.07183822,229.40309,230.15674,0.36870316,0.41228098,0.14100678,0.1065928,inf,inf,inf,inf,1,1,1,1,2,0,2,1,48,1,1,1,0,0
21781760000,21781760000,1024000,41.606704,-86.3556021,-120.851906,214.60147,-232.73671,0.00058205053,2.1875936e-05,0.0,-2.9638093,5.258779,-5.733764,-5.6903095,-0.0004043681,-0.0023174433,0.0029783552,0.047948834,0.020797694,0.006645854,-1.0488052,0.07183822,229.40309,232.98018,0.37072518,0.4138765,0.14201382,0.10700668,inf,inf,inf,inf,1,1,1,1,2,0,2,1,48,1,1,1,0,0
21782256000,21782256000,1024000,41.606704,-86.3556021,-122.32143,217.236,-235.57097,0.00058205053,2.1875936e-05,0.0,-2.9623008,5.259766,-5.7297354,-5.6977763,-0.0004043681,-0.0023174433,0.0029783552,0.010235228,0.06186167,0.026765214,-1.0489559,0.07183822,229.40309,235.81444,0.37366882,0.41557628,0.14377648,0.107562624,inf,inf,inf,inf,1,1,1,1,2,0,2,1,48,1,1,1,0,0
21782760000,21782760000,1024000,41.606704,-86.3556021,-123.81808,219.90643,-238.44287,0.00058205053,2.1875936e-05,0.0,-2.9579253,5.2587028,-5.716897,-5.686797,-0.0004043681,-0.0023174433,0.0029783552,-0.026790783,-0.04256622,0.039680798,-1.0490794,0.07183822,229.40309,238.68634,0.375725,0.41479874,0.144371,0.1076926,inf,inf,inf,inf,1,1,1,1,2,0,2,1,48,1,1,1,0,0
21783264000,21783264000,1024000,41.606704,-86.3556021,-125.30769,222.58505,-241.31294,0.00058205053,2.1875936e-05,0.0,-2.958815,5.2594175,-5.707175,-5.682457,-0.0004043681,-0.0023174433,0.0029783552,-0.039974183,-0.00043113527,0.006812561,-1.0489585,0.07183822,229.40309,241.55641,0.35889828,0.41197366,0.13653228,0.10531608,inf,inf,inf,inf,1,1,1,1,2,0,2,1,48,1,1,1,0,0
21783760000,21783760000,1024000,41.606704,-86.3556021,-126.77735,225.2131,-244.12917,0.00058205053,2.1875936e-05,0.0,-2.96588,5.2619734,-5.6873617,-5.665297,-0.0004043681,-0.0023174433,0.0029783552,-0.033608872,-0.051269203,-0.07243088,-1.0488319,0.07183822,229.40309,244.37263,0.38084748,0.41559833,0.1467243,0.10834899,inf,inf,inf,inf,1,1,1,1,2,0,2,1,48,1,1,1,0,0
21784264000,21784264000,1024000,41.606704,-86.3556021,-128.27094,227.87761,-246.9924,0.00058205053,2.1875936e-05,0.0,-2.967711,5.2592,-5.6662264,-5.6535864,-0.0004043681,-0.0023174433,0.0029783552,0.03771694,0.04800805,-0.03305549,-1.0492971,0.07183822,229.40309,247.23587,0.36253852,0.41253686,0.13791673,0.10580473,inf,inf,inf,inf,1,1,1,1,2,0,2,1,48,1,1,1,0,0
21784760000,21784760000,1024000,41.606704,-86.3556021,-129.73665,230.50267,-249.80055,0.00058205053,2.1875936e-05,0.0,-2.9570725,5.2576427,-5.651446,-5.644005,-0.0004043681,-0.0023174433,0.0029783552,0.020133158,0.025614131,0.05748023,-1.0489248,0.07183822,229.40309,250.04402,0.3652979,0.41405568,0.13965042,0.10633142,inf,inf,inf,inf,1,1,1,1,2,0,2,1,48,1,1,1,0,0
21785256000,21785256000,1024000,41.606704,-86.3556021,-131.19699,233.12161,-252.60535,0.00058205053,2.1875936e-05,0.0,-2.9503546,5.2593913,-5.6364093,-5.635693,-0.0004043681,-0.0023174433,0.0029783552,-0.039443098,0.041230153,0.122534975,-1.0489194,0.07183822,229.40309,252.84882,0.366602,0.41250676,0.13993308,0.106291965,inf,inf,inf,inf,1,1,1,1,2,0,2,1,48,1,1,1,0,0
21785760000,21785760000,1024000,41.606704,-86.3556021,-132.68335,235.78497,-255.46706,0.00058205053,2.1875936e-05,0.0,-2.9524312,5.2597694,-5.6256385,-5.644508,-0.0004043681,-0.0023174433,0.0029783552,-0.06726085,-0.037080757,0.034757826,-1.0487686,0.07183822,229.40309,255.71053,0.3695391,0.41448143,0.14146474,0.1068701,inf,inf,inf,inf,1,1,1,1,2,0,2,1,48,1,1,1,0,0
21786264000,21786264000,1024000,41.606704,-86.3556021,-134.17445,238.44153,-258.32883,0.00058205053,2.1875936e-05,0.0,-2.949126,5.257121,-5.6179094,-5.649668,-0.0004043681,-0.0023174433,0.0029783552,-0.04412463,0.007820519,0.031020429,-1.0486748,0.07183822,229.40309,258.5723,0.37208614,0.4135788,0.14256944,0.1070715,inf,inf,inf,inf,1,1,1,1,2,0,2,1,48,1,1,1,0,0
21786760000,21786760000,1024000,41.606704,-86.3556021,-135.64166,241.06184,-261.14566,0.00058205053,2.1875936e-05,0.0,-2.9468007,5.2593927,-5.6140084,-5.6565685,-0.0004043681,-0.0023174433,0.0029783552,-0.06430651,0.029829273,0.0045950823,-1.0486593,0.07183822,229.40309,261.38913,0.37366498,0.41502333,0.14317308,0.1074161,inf,inf,inf,inf,1,1,1,1,2,0,2,1,48,1,1,1,0,0
21787256000,21787256000,1024000,41.606704,-86.3556021,-137.10359,243.67886,-263.96683,0.00058205053,2.1875936e-05,0.0,-2.9439359,5.2568254,-5.6090956,-5.662478,-0.0004043681,-0.0023174433,0.0029783552,0.08168378,0.13851826,-0.11092803,-1.0485696,0.07183822,229.40309,264.2103,0.35669032,0.41159984,0.13538188,0.10493724,inf,inf,inf,inf,1,1,1,1,2,0,2,1,48,1,1,1,0,0
21787760000,21787760000,1024000,41.606704,-86.3556021,-138.59218,246.33377,-266.83017,0.00058205053,2.1875936e-05,0.0,-2.940821,5.2599177,-5.614858,-5.6722217,-0.0004043681,-0.0023174433,0.0029783552,0.1258654,-0.14396462,0.24543695,-1.0487938,0.07183822,229.40309,267.07364,0.37915507,0.41567805,0.1460166,0.108142346,inf,inf,inf,inf,1,1,1,1,2,0,2,1,48,1,1,1,0,0
21788264000,21788264000,1024000,41.606704,-86.3556021,-140.08783,248.99678,-269.70126,0.00058205053,2.1875936e-05,0.0,-2.9379463,5.2637086,-5.6089225,-5.675889,-0.0004043681,-0.0023174433,0.0029783552,0.030136362,-0.04138176,0.11595238,-1.0488476,0.07183822,229.40309,269.94473,0.3613926,0.41261476,0.13757074,0.10566069,inf,inf,inf,inf,1,1,1,1,2,0,2,1,48,1,1,1,0,0
21788760000,21788760000,1024000,41.606704,-86.3556021,-141.55452,251.61746,-272.5235,0.00058205053,2.1875936e-05,0.0,-2.9381993,5.264017,-5.615758,-5.682671,-0.0004043681,-0.0023174433,0.0029783552,0.071282595,-0.012668168,-0.022755066,-1.0487542,0.07183822,229.40309,272.76697,0.3848238,0.41920334,0.14884946,0.10917619,inf,inf,inf,inf,1,1,1,1,2,0,2,1,48,1,1,1,0,0
21789256000,21789256000,1024000,41.606704,-86.3556021,-143.0084,254.23631,-275.34116,0.00058205053,2.1875936e-05,0.0,-2.9242175,5.2735543,-5.619174,-5.683988,-0.0004043681,-0.0023174433,0.0029783552,-0.042814534,0.04550449,0.038805354,-1.0489409,0.07183822,229.40309,275.58463,0.36468345,0.41240376,0.1389512,0.10603524,inf,inf,inf,inf,1,1,1,1,2,0,2,1,48,1,1,1,0,0
21789760000,21789760000,1024000,41.606704,-86.3556021,-144.48946,256.9026,-278.2121,0.00058205053,2.1875936e-05,0.0,-2.924731,5.271796,-5.620935,-5.6898794,-0.0004043681,-0.0023174433,0.0029783552,-0.01466801,0.040072933,0.019786814,-1.0494021,0.07183822,229.40309,278.45557,0.36778972,0.41434723,0.14072458,0.10664725,inf,inf,inf,inf,1,1,1,1,2,0,2,1,48,1,1,1,0,0
21790264000,21790264000,1024000,41.606704,-86.3556021,-145.97742,259.56836,-281.075,0.00058205053,2.1875936e-05,0.0,-2.9307463,5.2712455,-5.615287,-5.67882,-0.0004043681,-0.0023174433,0.0029783552,-0.09122333,0.07843156,-0.081533626,-1.0491927,0.07183822,229.40309,281.31848,0.37056744,0.41336972,0.14202389,0.106877856,inf,inf,inf,inf,1,1,1,1,2,0,2,1,48,1,1,1,0,0
21790760000,21790760000,1024000,41.606704,-86.3556021,-147.44302,262.18927,-283.88928,0.00058205053,2.1875936e-05,0.0,-2.9362283,5.264526,-5.616957,-5.6780553,-0.0004043681,-0.0023174433,0.0029783552,-0.05462446,-0.14436051,0.10769714,-1.048888,0.07183822,229.40309,284.13275,0.37241966,0.414849,0.14284012,0.10727577,inf,inf,inf,inf,1,1,1,1,2,0,2,1,48,1,1,1,0,0
21791264000,21791264000,1024000,41.606704,-86.3556021,-148.935,264.85367,-286.75723,0.00058205053,2.1875936e-05,0.0,-2.9395623,5.266727,-5.6232896,-5.687074,-0.0004043681,-0.0023174433,0.0029783552,0.026118401,-0.007786634,0.06879766,-1.0494081,0.07183822,229.40309,287.0007,0.37594715,0.41407266,0.1448184,0.107631765,inf,inf,inf,inf,1,1,1,1,2,0,2,1,48,1,1,1,0,0
21791760000,21791760000,1024000,41.606704,-86.3556021,-150.39856,267.47922,-289.57928,0.00058205053,2.1875936e-05,0.0,-2.949603,5.2682467,-5.6249185,-5.689864,-0.0004043681,-0.0023174433,0.0029783552,-0.029708778,-0.03548849,0.07421982,-1.0491092,0.07183822,229.40309,289.82275,0.37713888,0.4156021,0.14496538,0.10794813,inf,inf,inf,inf,1,1,1,1,2,0,2,1,48,1,1,1,0,0
21792264000,21792264000,1024000,41.606704,-86.3556021,-151.88391,270.15387,-292.4473,0.00058205053,2.1875936e-05,0.0,-2.9506063,5.266796,-5.627993,-5.6913276,-0.0004043681,-0.0023174433,0.0029783552,0.09056638,-0.061188042,0.026934715,-1.049566,0.07183822,229.40309,292.69077,0.3599176,0.4099809,0.13689141,0.10525466,inf,inf,inf,inf,1,1,1,1,2,0,2,1,48,1,1,1,0,0
21792760000,21792760000,1024000,41.606704,-86.3556021,-153.33827,272.7773,-295.27225,0.00058205053,2.1875936e-05,0.0,-2.9488492,5.2648177,-5.630956,-5.6946774,-0.0004043681,-0.0023174433,0.0029783552,0.024452996,0.044967175,-0.048148505,-1.0496937,0.07183822,229.40309,295.51572,0.3832993,0.41669226,0.14826453,0.10882005,inf,inf,inf,inf,1,1,1,1,2,0,2,1,48,1,1,1,0,0
21793264000,21793264000,1024000,41.606704,-86.3556021,-154.81334,275.45047,-298.13443,0.00058205053,2.1875936e-05,0.0,-2.9394104,5.2634997,-5.622958,-5.6820006,-0.0004043681,-0.0023174433,0.0029783552,-0.018308714,0.037520412,-0.0721757,-1.0490304,0.07183822,229.40309,298.3779,0.36433578,0.4136424,0.13895082,0.106232345,inf,inf,inf,inf,1,1,1,1,2,0,2,1,48,1,1,1,0,0
21793760000,21793760000,1024000,41.606704,-86.3556021,-156.26883,278.08185,-300.9628,0.00058205053,2.1875936e-05,0.0,-2.9416173,5.257892,-5.621462,-5.688098,-0.0004043681,-0.0023174433,0.0029783552,0.0035676365,-0.013966359,-0.07231446,-1.0490361,0.07183822,229.40309,301.20627,0.36695275,0.4124081,0.14050502,0.10644443,inf,inf,inf,inf,1,1,1,1,2,0,2,1,48,1,1,1,0,0
21794256000,21794256000,1024000,41.606704,-86.3556021,-157.72246,280.70364,-303.78348,0.00058205053,2.1875936e-05,0.0,-2.9287703,5.2599792,-5.621514,-5.6864862,-0.0004043681,-0.0023174433,0.0029783552,-0.0023177147,-0.09826201,-0.011406901,-1.049386,0.07183822,229.40309,304.02695,0.36797455,0.41103578,0.14051725,0.10639151,inf,inf,inf,inf,1,1,1,1,2,0,2,1,48,1,1,1,0,0
21794760000,21794760000,1024000,41.606704,-86.3556021,-159.19995,283.36838,-306.65274,0.00058205053,2.1875936e-05,0.0,-2.9319258,5.2492137,-5.627982,-5.692762,-0.0004043681,-0.0023174433,0.0029783552,-0.029366655,-0.012123753,0.030283751,-1.0491723,0.07183822,229.40309,306.8962,0.3706833,0.41326153,0.14191274,0.10697657,inf,inf,inf,inf,1,1,1,1,2,0,2,1,48,1,1,1,0,0
21795264000,21795264000,1024000,41.606704,-86.3556021,-160.67715,286.03204,-309.523,0.00058205053,2.1875936e-05,0.0,-2.9382615,5.248586,-5.640428,-5.7034283,-0.0004043681,-0.0023174433,0.0029783552,-0.06310883,0.029693937,-0.054521546,-1.049241,0.07183822,229.40309,309.76648,0.37434286,0.41555384,0.1440568,0.10769141,inf,inf,inf,inf,1,1,1,1,2,0,2,1,48,1,1,1,0,0
21795760000,21795760000,1024000,41.606704,-86.3556021,-162.13145,288.6584,-312.35626,0.00058205053,2.1875936e-05,0.0,-2.9421062,5.242441,-5.654396,-5.7186913,-0.0004043681,-0.0023174433,0.0029783552,0.035971943,-0.008945877,-0.057187922,-1.0494988,0.07183822,229.40309,312.59973,0.3756905,0.41421586,0.14439632,0.1076793,inf,inf,inf,inf,1,1,1,1,2,0,2,1,48,1,1,1,0,0
21796264000,21796264000,1024000,41.606704,-86.3556021,-163.61108,291.33905,-315.23068,0.00058205053,2.1875936e-05,0.0,-2.9512868,5.24284,-5.6649365,-5.720153,-0.0004043681,-0.0023174433,0.0029783552,-0.09948763,0.03133447,-0.019338977,-1.0496231,0.07183822,229.40309,315.47415,0.35887372,0.41144288,0.13657802,0.10530983,inf,inf,inf,inf,1,1,1,1,2,0,2,1,48,1,1,1,0,0
21796760000,21796760000,1024000,41.606704,-86.3556021,-165.06773,293.96747,-318.06512,0.00058205053,2.1875936e-05,0.0,-2.9568322,5.244134,-5.669799,-5.720804,-0.0004043681,-0.0023174433,0.0029783552,0.04727173,0.095339336,-0.09210134,-1.049179,0.07183822,229.40309,318.3086,0.3807607,0.41531363,0.14678241,0.10839713,inf,inf,inf,inf,1,1,1,1,2,0,2,1,48,1,1,1,0,0
21797264000,21797264000,1024000,41.606704,-86.3556021,-166.5399,296.64102,-320.93527,0.00058205053,2.1875936e-05,0.0,-2.9663966,5.245722,-5.6789207,-5.7178683,-0.0004043681,-0.0023174433,0.0029783552,0.09685327,-0.07286188,0.24730332,-1.0490929,0.07183822,229.40309,321.17874,0.36247802,0.4125085,0.13800897,0.10589896,inf,inf,inf,inf,1,1,1,1,2,0,2,1,48,1,1,1,0,0
21797760000,21797760000,1024000,41.606704,-86.3556021,-167.98967,299.27258,-323.75974,0.00058205053,2.1875936e-05,0.0,-2.9626086,5.2467594,-5.675566,-5.7069283,-0.0004043681,-0.0023174433,0.0029783552,-0.01466141,-0.02309327,0.033765037,-1.049323,0.07183822,229.40309,324.0032,0.3652524,0.41139144,0.13976628,0.1061517,inf,inf,inf,inf,1,1,1,1,2,0,2,1,48,1,1,1,0,0
21798256000,21798256000,1024000,41.606704,-86.3556021,-169.4431,301.89392,-326.58994,0.00058205053,2.1875936e-05,0.0,-2.9624588,5.2443447,-5.6787066,-5.710347,-0.0004043681,-0.0023174433,0.0029783552,0.05033212,-0.04224667,0.12221553,-1.049636,0.07183822,229.40309,326.8334,0.36656907,0.4129373,0.14004754,0.10646079,inf,inf,inf,inf,1,1,1,1,2,0,2,1,48,1,1,1,0,0
21798760000,21798760000,1024000,41.606704,-86.3556021,-170.91403,304.5705,-329.47537,0.00058205053,2.1875936e-05,0.0,-2.9533174,5.2406683,-5.684653,-5.721992,-0.0004043681,-0.0023174433,0.0029783552,0.0142360665,-0.04429644,0.07364985,-1.0491003,0.07183822,229.40309,329.71884,0.36952046,0.41236657,0.14161833,0.10676891,inf,inf,inf,inf,1,1,1,1,2,0,2,1,48,1,1,1,0,0
21799264000,21799264000,1024000,41.606704,-86.3556021,-172.38792,307.23822,-332.3579,0.00058205053,2.1875936e-05,0.0,-2.9507008,5.231837,-5.6896014,-5.7257895,-0.0004043681,-0.0023174433,0.0029783552,0.01495971,-0.0071702665,-0.090786316,-1.0497552,0.07183822,229.40309,332.60138,0.3721446,0.41467774,0.14275871,0.107340455,inf,inf,inf,inf,1,1,1,1,2,0,2,1,48,1,1,1,0,0
21799760000,21799760000,1024000,41.606704,-86.3556021,-173.8316,309.86816,-335.19498,0.00058205053,2.1875936e-05,0.0,-2.939923,5.2341814,-5.6954427,-5.727779,-0.0004043681,-0.0023174433,0.0029783552,-0.029001942,0.0062311487,-0.11177553,-1.0493635,0.07183822,229.40309,335.43845,0.37372375,0.41346672,0.14335775,0.10737716,inf,inf,inf,inf,1,1,1,1,2,0,2,1,48,1,1,1,0,0
21800264000,21800264000,1024000,41.606704,-86.3556021,-175.29623,312.54443,-338.07214,0.00058205053,2.1875936e-05,0.0,-2.9364755,5.235872,-5.6948147,-5.719112,-0.0004043681,-0.0023174433,0.0029783552,-0.01124637,-0.14741066,0.10457162,-1.0491223,0.07183822,229.40309,338.3156,0.35737047,0.41081867,0.13583146,0.10505659,inf,inf,inf,inf,1,1,1,1,2,0,2,1,48,1,1,1,0,0
21800760000,21800760000,1024000,41.606704,-86.3556021,-176.74469,315.16428,-340.90366,0.00058205053,2.1875936e-05,0.0,-2.9340508,5.2214475,-5.6965265,-5.716789,-0.0004043681,-0.0023174433,0.0029783552,0.030211668,-0.060560074,0.010568585,-1.0492837,0.07183822,229.40309,341.14713,0.3792133,0.41453302,0.1461361,0.108114965,inf,inf,inf,inf,1,1,1,1,2,0,2,1,48,1,1,1,0,0
21801264000,21801264000,1024000,41.606704,-86.3556021,-178.21742,317.831,-343.78647,0.00058205053,2.1875936e-05,0.0,-2.9326336,5.2112694,-5.703397,-5.7243447,-0.0004043681,-0.0023174433,0.0029783552,0.015757356,-0.07930716,0.028513307,-1.0494874,0.07183822,229.40309,344.02994,0.36143115,0.41169927,0.13766184,0.105648324,inf,inf,inf,inf,1,1,1,1,2,0,2,1,48,1,1,1,0,0
21801760000,21801760000,1024000,41.606704,-86.3556021,-179.67253,320.45596,-346.62125,0.00058205053,2.1875936e-05,0.0,-2.9291937,5.210365,-5.7097373,-5.725884,-0.0004043681,-0.0023174433,0.0029783552,0.019397782,-0.024653414,0.03805471,-1.0488865,0.07183822,229.40309,346.86472,0.38487625,0.41567272,0.14893457,0.10886606,inf,inf,inf,inf,1,1,1,1,2,0,2,1,48,1,1,1,0,0
21802264000,21802264000,1024000,41.606704,-86.3556021,-181.14366,323.12543,-349.48953,0.00058205053,2.1875936e-05,0.0,-2.9196465,5.210263,-5.7113805,-5.7143307,-0.0004043681,-0.0023174433,0.0029783552,-0.07171008,-0.020031402,-0.061533477,-1.0489988,0.07183822,229.40309,349.733,0.36550114,0.41274548,0.13943772,0.10626739,inf,inf,inf,inf,1,1,1,1,2,0,2,1,48,1,1,1,0,0
21802760000,21802760000,1024000,41.606704,-86.3556021,-182.59003,325.7535,-352.32962,0.00058205053,2.1875936e-05,0.0,-2.9121387,5.2050953,-5.7225347,-5.72849,-0.0004043681,-0.0023174433,0.0029783552,-0.1057841,-0.026810609,-0.14642166,-1.04946,0.07183822,229.40309,352.5731,0.36792076,0.41159588,0.14088129,0.1064441,inf,inf,inf,inf,1,1,1,1,2,0,2,1,48,1,1,1,0,0
21803264000,21803264000,1024000,41.606704,-86.3556021,-184.06253,328.4193,-355.21036,0.00058205053,2.1875936e-05,0.0,-2.9113073,5.2075543,-5.720343,-5.7218723,-0.0004043681,-0.0023174433,0.0029783552,-0.053332783,0.05387304,-0.1018644,-1.0494151,0.07183822,229.40309,355.45383,0.3707417,0.4138829,0.14220648,0.1070452,inf,inf,inf,inf,1,1,1,1,2,0,2,1,48,1,1,1,0,0
21803760000,21803760000,1024000,41.606704,-86.3556021,-185.51633,331.04865,-358.04062,0.00058205053,2.1875936e-05,0.0,-2.9193466,5.2055554,-5.724891,-5.7191978,-0.0004043681,-0.0023174433,0.0029783552,-0.07815335,-0.17887522,0.019364925,-1.04949,0.07183822,229.40309,358.2841,0.3725702,0.4126537,0.14298907,0.10711163,inf,inf,inf,inf,1,1,1,1,2,0,2,1,48,1,1,1,0,0
21804256000,21804256000,1024000,41.606704,-86.3556021,-186.97281,333.6772,-360.86993,0.00058205053,2.1875936e-05,0.0,-2.9262733,5.200822,-5.724266,-5.713704,-0.0004043681,-0.0023174433,0.0029783552,-0.01625253,0.03547939,-0.058470353,-1.0491525,0.07183822,229.40309,361.1134,0.37535578,0.41442838,0.14458396,0.10764981,inf,inf,inf,inf,1,1,1,1,2,0,2,1,48,1,1,1,0,0
21804760000,21804760000,1024000,41.606704,-86.3556021,-188.44002,336.33783,-363.74918,0.00058205053,2.1875936e-05,0.0,-2.9167607,5.203312,-5.726422,-5.7147613,-0.0004043681,-0.0023174433,0.0029783552,-0.022379227,-0.07787304,-0.02605381,-1.049283,0.07183822,229.40309,363.99265,0.37717846,0.413726,0.14497505,0.107753545,inf,inf,inf,inf,1,1,1,1,2,0,2,1,48,1,1,1,0,0
21805264000,21805264000,1024000,41.606704,-86.3556021,-189.9178,339.001,-366.6195,0.00058205053,2.1875936e-05,0.0,-2.9248686,5.2095556,-5.7260547,-5.70842,-0.0004043681,-0.0023174433,0.0029783552,0.03678769,-0.04870183,0.050409634,-1.0492046,0.07183822,229.40309,366.86298,0.3599487,0.41096437,0.13693774,0.10535247,inf,inf,inf,inf,1,1,1,1,2,0,2,1,48,1,1,1,0,0
21805760000,21805760000,1024000,41.606704,-86.3556021,-191.37267,341.62506,-369.45795,0.00058205053,2.1875936e-05,0.0,-2.9228961,5.2138405,-5.7342052,-5.721763,-0.0004043681,-0.0023174433,0.0029783552,0.012459633,-0.05813806,-0.099171944,-1.0490667,0.07183822,229.40309,369.70142,0.38325527,0.41771802,0.14826348,0.108888626,inf,inf,inf,inf,1,1,1,1,2,0,2,1,48,1,1,1,0,0
21806264000,21806264000,1024000,41.606704,-86.3556021,-192.84178,344.28766,-372.34695,0.00058205053,2.1875936e-05,0.0,-2.9171062,5.220013,-5.7400904,-5.729829,-0.0004043681,-0.0023174433,0.0029783552,0.06454701,0.07925557,-0.059064537,-1.0494982,0.07183822,229.40309,372.59042,0.36430752,0.41174436,0.13900468,0.105964385,inf,inf,inf,inf,1,1,1,1,2,0,2,1,48,1,1,1,0,0
21806760000,21806760000,1024000,41.606704,-86.3556021,-194.1833,346.77408,-374.63547,0.00058205053,2.1875936e-05,0.0,-2.1958637,4.331907,-2.7568622,-2.7560706,-0.0004043681,-0.0023174433,0.0029783552,3.9509878,-4.2079377,6.264159,-1.037364,0.07183822,229.40309,374.87894,0.36681396,0.41337663,0.1336867,0.10472141,inf,inf,inf,inf,1,1,1,1,2,0,2,1,48,1,1,1,0,0
21807264000,21807264000,1024000,41.606704,-86.3556021,-194.8869,348.3827,-375.59955,0.00058205053,2.1875936e-05,0.0,-1.0061978,1.8607947,-1.3770984,-1.395643,-0.0004043681,-0.0023174433,0.0029783552,-0.12043376,-4.9094663,-0.6612903,-1.0634658,0.07183822,229.40309,375.84302,0.36816177,0.41232392,0.14100571,0.09885282,inf,inf,inf,inf,1,1,1,1,2,0,2,1,48,1,1,1,0,0
21807760000,21807760000,1024000,41.606704,-86.3556021,-195.3452,348.96133,-376.27826,0.00058205053,2.1875936e-05,0.0,-0.49905747,0.42642784,-1.1201242,-1.118097,-0.0004043681,-0.0023174433,0.0029783552,1.409618,-1.170656,0.8441581,-1.0643265,0.07183822,229.40309,376.52173,0.36986056,0.41296092,0.15190214,0.095924854,inf,inf,inf,inf,1,1,1,1,2,0,2,1,48,1,1,1,0,0
21808256000,21808256000,1024000,41.606704,-86.3556021,-195.53993,349.13376,-376.74713,0.00058205053,2.1875936e-05,0.0,-0.22950621,0.22090177,-0.7855954,-0.75896424,-0.0004043681,-0.0023174433,0.0029783552,0.39854753,-0.75172746,1.5637537,-1.0599967,0.07183822,229.40309,376.9906,0.3729399,0.4103494,0.15550943,0.09463094,inf,inf,inf,inf,1,1,1,1,2,0,2,1,48,1,1,1,0,0
21808760000,21808760000,1024000,41.606704,-86.3556021,-195.57533,349.08395,-376.93573,0.00058205053,2.1875936e-05,0.0,0.27467003,-0.4618033,-0.1344726,-0.10196643,-0.0004043681,-0.0023174433,0.0029783552,1.0223299,-1.5843447,0.82951957,-1.0609382,0.07183822,229.40309,377.1792,0.3751886,0.41090226,0.15863022,0.0956032,inf,inf,inf,inf,1,1,1,1,2,0,2,1,48,1,1,1,0,0
21809264000,21809264000,1024000,41.606704,-86.3556021,-195.37074,348.637,-376.8927,0.00058205053,2.1875936e-05,0.0,0.65430385,-1.2536907,0.30008352,0.32198727,-0.0004043681,-0.0023174433,0.0029783552,0.65482384,-1.1796438,0.9597287,-1.0629948,0.07183822,229.40309,377.13617,0.3584509,0.40520075,0.15131068,0.09553749,inf,inf,inf,inf,1,1,1,1,2,0,2,1,48,1,1,1,0,0
21809760000,21809760000,1024000,41.606704,-86.3556021,-195.00348,347.8991,-376.6411,0.00058205053,2.1875936e-05,0.0,0.88465774,-1.5783551,0.74672717,0.752947,-0.0004043681,-0.0023174433,0.0029783552,0.19757937,-0.261215,0.7456801,-1.0524971,0.07183822,229.40309,376.88458,0.38124555,0.40624815,0.16429608,0.10047941,inf,inf,inf,inf,1,1,1,1,2,0,2,1,48,1,1,1,0,0
21810256000,21810256000,1024000,41.606704,-86.3556021,-194.5646,347.05536,-376.2625,0.00058205053,2.1875936e-05,0.0,0.8760729,-1.6225454,0.81026345,0.8068749,-0.0004043681,-0.0023174433,0.0029783552,-0.017915556,0.3155549,0.3459099,-1.0549502,0.07183822,229.40309,376.50598,0.36205408,0.40335426,0.15244482,0.10106526,inf,inf,inf,inf,1,1,1,1,2,0,2,1,48,1,1,1,0,0
21810760000,21810760000,1024000,41.606704,-86.3556021,-194.11865,346.27032,-375.81873,0.00058205053,2.1875936e-05,0.0,0.8038764,-1.2618604,0.9886778,0.9743592,-0.0004043681,-0.0023174433,0.0029783552,-0.22744411,0.9847692,0.12840511,-1.0445739,0.07183822,229.40309,376.0622,0.3658552,0.40477473,0.15530299,0.10463643,inf,inf,inf,inf,1,1,1,1,2,0,2,1,48,1,1,1,0,0
21811264000,21811264000,1024000,41.606704,-86.3556021,-193.72621,345.69513,-375.32922,0.00058205053,2.1875936e-05,0.0,0.6096101,-0.93060124,1.0191274,0.9969188,-0.0004043681,-0.0023174433,0.0029783552,-0.57255214,0.44775942,-0.05429244,-1.0498217,0.07183822,229.40309,375.5727,0.36809617,0.4038164,0.15709095,0.10764679,inf,inf,inf,inf,1,1,1,1,2,0,2,1,48,1,1,1,0,0
21811760000,21811760000,1024000,41.606704,-86.3556021,-193.42497,345.26785,-374.85745,0.00058205053,2.1875936e-05,0.0,0.4353098,-0.68397266,1.0522277,1.0082042,-0.0004043681,-0.0023174433,0.0029783552,-0.33520696,0.54762226,0.046742085,-1.0510826,0.07183822,229.40309,375.10092,0.37064368,0.40548196,0.15911442,0.11065635,inf,inf,inf,inf,1,1,1,1,2,0,2,1,48,1,1,1,0,0
21812264000,21812264000,1024000,41.606704,-86.3556021,-193.21169,344.98013,-374.35764,0.00058205053,2.1875936e-05,0.0,0.25022227,-0.40332764,1.0710284,1.0176233,-0.0004043681,-0.0023174433,0.0029783552,-0.39572135,0.4588316,0.025373818,-1.0516465,0.07183822,229.40309,374.6011,0.3734795,0.40535742,0.16016154,0.113136366,inf,inf,inf,inf,1,1,1,1,2,0,2,1,48,1,1,1,0,0
21812760000,21812760000,1024000,41.606704,-86.3556021,-193.08109,344.8232,-373.87823,0.00058205053,2.1875936e-05,0.0,0.0980401,-0.18171518,1.0577,0.99008495,-0.0004043681,-0.0023174433,0.0029783552,-0.35074884,0.41337848,0.057301417,-1.0519044,0.07183822,229.40309,374.1217,0.37526897,0.40512264,0.15977702,0.114970915,inf,inf,inf,inf,1,1,1,1,2,0,2,1,48,1,1,1,0,0
21813256000,21813256000,1024000,41.606704,-86.3556021,-193.02174,344.77435,-373.4031,0.00058205053,2.1875936e-05,0.0,-0.007866586,-0.04881423,1.0730915,0.99306136,-0.0004043681,-0.0023174433,0.0029783552,-0.24433878,0.1422554,0.14985253,-1.0515423,0.07183822,229.40309,373.64658,0.3576612,0.40326303,0.14769283,0.113180384,inf,inf,inf,inf,1,1,1,1,2,0,2,1,48,1,1,1,0,0
21813760000,21813760000,1024000,41.606704,-86.3556021,-193.0191,344.77646,-372.90585,0.00058205053,2.1875936e-05,0.0,-0.06655369,0.004355791,1.0711783,0.9916027,-0.0004043681,-0.0023174433,0.0029783552,-0.15297733,0.05716901,0.08106877,-1.0505357,0.07183822,229.40309,373.14932,0.38124803,0.406241,0.1584605,0.11811657,inf,inf,inf,inf,1,1,1,1,2,0,2,1,48,1,1,1,0,0
21814256000,21814256000,1024000,41.606704,-86.3556021,-193.0341,344.7862,-372.41696,0.00058205053,2.1875936e-05,0.0,-0.06866451,0.0048332224,1.0727984,0.9929532,-0.0004043681,-0.0023174433,0.0029783552,-0.050720055,-0.0822295,-0.0762195,-1.0494341,0.07183822,229.40309,372.66043,0.36197484,0.4043798,0.14548604,0.115442425,inf,inf,inf,inf,1,1,1,1,2,0,2,1,48,1,1,1,0,0
21814760000,21814760000,1024000,41.606704,-86.3556021,-193.06534,344.79474,-371.91293,0.00058205053,2.1875936e-05,0.0,-0.06327769,-0.0017066308,1.0813527,1.0075973,-0.0004043681,-0.0023174433,0.0029783552,-0.18582682,-0.21884362,1.4278859,-1.0488942,0.07183822,229.40309,372.1564,0.3870524,0.41363305,0.15670569,0.12081009,inf,inf,inf,inf,1,1,1,1,2,0,2,1,48,1,1,1,0,0
21815256000,21815256000,1024000,41.606704,-86.3556021,-193.10022,344.79816,-371.41467,0.00058205053,2.1875936e-05,0.0,-0.04025565,-0.01857687,1.0615482,0.9923586,-0.0004043681,-0.0023174433,0.0029783552,0.06654298,0.00029123022,0.024960311,-1.0488433,0.07183822,229.40309,371.65814,0.36599723,0.40809134,0.14389896,0.1169688,inf,inf,inf,inf,1,1,1,1,2,0,2,1,48,1,1,1,0,0
21815760000,21815760000,1024000,41.606704,-86.3556021,-193.12083,344.79712,-370.92273,0.00058205053,2.1875936e-05,0.0,-0.005483338,-0.028315436,1.062799,0.98689187,-0.0004043681,-0.0023174433,0.0029783552,0.067915745,-0.052280083,0.07579003,-1.048716,0.07183822,229.40309,371.1662,0.3691003,0.4115828,0.14455149,0.1179176,inf,inf,inf,inf,1,1,1,1,2,0,2,1,48,1,1,1,0,0
21816264000,21816264000,1024000,41.606704,-86.3556021,-193.12413,344.7866,-370.41818,0.00058205053,2.1875936e-05,0.0,0.017378315,-0.036100548,1.063046,0.99276656,-0.0004043681,-0.0023174433,0.0029783552,0.017556543,0.024839811,-0.012676294,-1.0489838,0.07183822,229.40309,370.66165,0.37180722,0.41209775,0.14498845,0.11834938,inf,inf,inf,inf,1,1,1,1,2,0,2,1,48,1,1,1,0,0
21816760000,21816760000,1024000,41.606704,-86.3556021,-193.1259,344.78,-369.9309,0.00058205053,2.1875936e-05,0.0,0.026276495,-0.031946007,1.0617179,0.9893651,-0.0004043681,-0.0023174433,0.0029783552,-0.014020226,-0.030014085,-0.06683549,-1.0493475,0.07183822,229.40309,370.17438,0.37354007,0.4146665,0.1452477,0.11878192,inf,inf,inf,inf,1,1,1,1,2,0,2,1,48,1,1,1,0,0
21817264000,21817264000,1024000,41.606704,-86.3556021,-193.12064,344.7653,-369.42926,0.00058205053,2.1875936e-05,0.0,0.0314474,-0.029100357,1.0556793,0.9888151,-0.0004043681,-0.0023174433,0.0029783552,0.003392871,0.12358554,-0.16858527,-1.0493038,0.07183822,229.40309,369.67273,0.37695837,0.41787586,0.14683026,0.11957198,inf,inf,inf,inf,1,1,1,1,2,0,2,1,48,1,1,1,0,0
21817760000,21817760000,1024000,41.606704,-86.3556021,-193.11145,344.74207,-368.9252,0.00058205053,2.1875936e-05,0.0,0.029517071,-0.023020014,1.0467733,0.99347866,-0.0004043681,-0.0023174433,0.0029783552,0.0888175,0.15657544,-0.16036075,-1.0488473,0.07183822,229.40309,369.16867,0.37786984,0.4171526,0.14663523,0.119411156,inf,inf,inf,inf,1,1,1,1,2,0,2,1,48,1,1,1,0,0
21818264000,21818264000,1024000,41.606704,-86.3556021,-193.09956,344.71948,-368.41382,0.00058205053,2.1875936e-05,0.0,0.020619385,-0.0059714573,1.0209975,0.9802237,-0.0004043681,-0.0023174433,0.0029783552,-0.14064646,0.02378795,-1.3444023,-1.0489962,0.07183822,229.40309,368.6573,0.36035627,0.41415134,0.13827035,0.11602356,inf,inf,inf,inf,1,1,1,1,2,0,2,1,48,1,1,1,0,0
21818760000,21818760000,1024000,41.606704,-86.3556021,-193.0883,344.70654,-367.92538,0.00058205053,2.1875936e-05,0.0,0.007675077,0.012363403,1.0302606,0.98897433,-0.0004043681,-0.0023174433,0.0029783552,-0.0485178,0.063444294,0.121965,-1.0494387,0.07183822,229.40309,368.16885,0.38372153,0.419531,0.14981982,0.12032984,inf,inf,inf,inf,1,1,1,1,2,0,2,1,48,1,1,1,0,0
21819256000,21819256000,1024000,41.606704,-86.3556021,-193.07774,344.70206,-367.42917,0.00058205053,2.1875936e-05,0.0,-0.00012207686,0.020822305,1.0320145,0.99377656,-0.0004043681,-0.0023174433,0.0029783552,0.045882672,0.020236747,-0.018304277,-1.0495477,0.07183822,229.40309,367.67264,0.36393872,0.4154792,0.13991861,0.11655699,inf,inf,inf,inf,1,1,1,1,2,0,2,1,48,1,1,1,0,0
21819760000,21819760000,1024000,41.606704,-86.3556021,-193.06,344.70126,-366.93237,0.00058205053,2.1875936e-05,0.0,-0.008362546,0.026394412,1.0402331,0.99677145,-0.0004043681,-0.0023174433,0.0029783552,-0.04756204,0.07076721,0.0029121824,-1.0493023,0.07183822,229.40309,367.17584,0.3671914,0.4153489,0.14184609,0.11704404,inf,inf,inf,inf,1,1,1,1,2,0,2,1,48,1,1,1,0,0
21820256000,21820256000,1024000,41.606704,-86.3556021,-193.05075,344.70493,-366.4381,0.00058205053,2.1875936e-05,0.0,-0.026345126,0.025154587,1.045137,0.9994297,-0.0004043681,-0.0023174433,0.0029783552,-0.096295506,0.023224514,-0.07930963,-1.0494202,0.07183822,229.40309,366.68158,0.3682403,0.4173194,0.14189298,0.11734411,inf,inf,inf,inf,1,1,1,1,2,0,2,1,48,1,1,1,0,0
21820760000,21820760000,1024000,41.606704,-86.3556021,-193.04811,344.71176,-365.93088,0.00058205053,2.1875936e-05,0.0,-0.02817343,0.024435716,1.0498964,1.00628,-0.0004043681,-0.0023174433,0.0029783552,0.04824838,0.036139186,-0.08967432,-1.049266,0.07183822,229.40309,366.17435,0.37092718,0.41693622,0.14327,0.11767722,inf,inf,inf,inf,1,1,1,1,2,0,2,1,48,1,1,1,0,0
21821264000,21821264000,1024000,41.606704,-86.3556021,-193.04753,344.71198,-365.41873,0.00058205053,2.1875936e-05,0.0,-0.034122452,0.015913686,1.0396447,1.002775,-0.0004043681,-0.0023174433,0.0029783552,0.29536548,0.19067597,0.19988596,-1.0492676,0.07183822,229.40309,365.6622,0.37458324,0.41956192,0.1454411,0.11856026,inf,inf,inf,inf,1,1,1,1,2,0,2,1,48,1,1,1,0,0
21821760000,21821760000,1024000,41.606704,-86.3556021,-193.0497,344.71255,-364.92258,0.00058205053,2.1875936e-05,0.0,-0.032834385,0.019844757,1.034446,0.99740565,-0.0004043681,-0.0023174433,0.0029783552,0.018247856,0.036661,0.0740289,-1.049213,0.07183822,229.40309,365.16605,0.37592024,0.41831285,0.1457486,0.118548706,inf,inf,inf,inf,1,1,1,1,2,0,2,1,48,1,1,1,0,0
21822264000,21822264000,1024000,41.606704,-86.3556021,-193.04411,344.7124,-364.41946,0.00058205053,2.1875936e-05,0.0,-0.031363126,0.012196047,1.0407779,1.003575,-0.0004043681,-0.0023174433,0.0029783552,-0.04920381,0.0011687656,0.019422667,-1.0492443,0.07183822,229.40309,364.66293,0.35902599,0.41491002,0.13766615,0.11536517,inf,inf,inf,inf,1,1,1,1,2,0,2,1,48,1,1,1,0,0
21822760000,21822760000,1024000,41.606704,-86.3556021,-193.04192,344.71307,-363.91586,0.00058205053,2.1875936e-05,0.0,-0.036465265,0.012809154,1.0343955,1.0031476,-0.0004043681,-0.0023174433,0.0029783552,-0.0505992,0.01616002,-0.06972073,-1.0490503,0.07183822,229.40309,364.15933,0.38100266,0.41961896,0.14799498,0.119445376,inf,inf,inf,inf,1,1,1,1,2,0,2,1,48,1,1,1,0,0
21823256000,21823256000,1024000,41.606704,-86.3556021,-193.03802,344.71014,-363.41766,0.00058205053,2.1875936e-05,0.0,-0.037295353,0.010548658,1.0283475,0.9986973,-0.0004043681,-0.0023174433,0.0029783552,-0.1336477,0.016974056,-0.07071259,-1.0490971,0.07183822,229.40309,363.66113,0.3620179,0.41552836,0.13874783,0.11591468,inf,inf,inf,inf,1,1,1,1,2,0,2,1,48,1,1,1,0,0
21823760000,21823760000,1024000,41.606704,-86.3556021,-193.03542,344.71338,-362.90747,0.00058205053,2.1875936e-05,0.0,-0.03471994,0.01452626,1.026511,1.0022541,-0.0004043681,-0.0023174433,0.0029783552,-0.09095467,-0.10230767,-0.18267338,-1.0492356,0.07183822,229.40309,363.15094,0.36552724,0.41806257,0.1408765,0.1168531,inf,inf,inf,inf,1,1,1,1,2,0,2,1,48,1,1,1,0,0
21824264000,21824264000,1024000,41.606704,-86.3556021,-193.0402,344.71722,-362.3942,0.00058205053,2.1875936e-05,0.0,-0.036380958,0.013499979,1.0233675,1.0071964,-0.0004043681,-0.0023174433,0.0029783552,-0.22104193,-0.17187044,1.3910214,-1.048955,0.07183822,229.40309,362.63766,0.36751813,0.41735128,0.14143892,0.11706384,inf,inf,inf,inf,1,1,1,1,2,0,2,1,48,1,1,1,0,0
21824760000,21824760000,1024000,41.606704,-86.3556021,-193.05002,344.7223,-361.88785,0.00058205053,2.1875936e-05,0.0,-0.034299247,0.015361614,1.0044944,0.99801403,-0.0004043681,-0.0023174433,0.0029783552,-0.07169986,0.02030468,-0.07014169,-1.0488513,0.07183822,229.40309,362.13132,0.36979166,0.41907474,0.14265387,0.11763766,inf,inf,inf,inf,1,1,1,1,2,0,2,1,48,1,1,1,0,0
21825256000,21825256000,1024000,41.606704,-86.3556021,-193.06122,344.7273,-361.39062,0.00058205053,2.1875936e-05,0.0,-0.028522588,0.01836989,0.99997115,0.99537873,-0.0004043681,-0.0023174433,0.0029783552,-0.016032493,0.03292558,0.07295136,-1.049016,0.07183822,229.40309,361.6341,0.37164742,0.41779482,0.14332438,0.11777873,inf,inf,inf,inf,1,1,1,1,2,0,2,1,48,1,1,1,0,0
21825760000,21825760000,1024000,41.606704,-86.3556021,-193.07169,344.7283,-360.8854,0.00058205053,2.1875936e-05,0.0,-0.015771432,0.0069692847,1.0033143,0.9995075,-0.0004043681,-0.0023174433,0.0029783552,0.09408168,-0.056222618,-0.059710875,-1.04875,0.07183822,229.40309,361.12888,0.37393752,0.42001465,0.1441306,0.11837249,inf,inf,inf,inf,1,1,1,1,2,0,2,1,48,1,1,1,0,0
21826264000,21826264000,1024000,41.606704,-86.3556021,-193.0787,344.72128,-360.37576,0.00058205053,2.1875936e-05,0.0,-0.008947964,0.007419583,0.99817944,0.99948734,-0.0004043681,-0.0023174433,0.0029783552,-0.040512092,0.05228361,-0.023990931,-1.0490434,0.07183822,229.40309,360.61923,0.35751113,0.41359937,0.13647042,0.11491792,inf,inf,inf,inf,1,1,1,1,2,0,2,1,48,1,1,1,0,0
21826760000,21826760000,1024000,41.606704,-86.3556021,-193.08534,344.71597,-359.8715,0.00058205053,2.1875936e-05,0.0,-0.0015998995,0.008462744,0.98753804,0.9959073,-0.0004043681,-0.0023174433,0.0029783552,-0.10731744,-0.040185243,-0.072484896,-1.0492254,0.07183822,229.40309,360.11496,0.37945068,0.4210693,0.14684807,0.11937418,inf,inf,inf,inf,1,1,1,1,2,0,2,1,48,1,1,1,0,0
21827264000,21827264000,1024000,41.606704,-86.3556021,-193.08768,344.7038,-359.35742,0.00058205053,2.1875936e-05,0.0,0.0009503795,0.014064272,0.9841055,1.0019398,-0.0004043681,-0.0023174433,0.0029783552,0.12592526,0.13881293,-0.1964644,-1.0490215,0.07183822,229.40309,359.6009,0.36158273,0.4174278,0.13822334,0.11605789,inf,inf,inf,inf,1,1,1,1,2,0,2,1,48,1,1,1,0,0
21827760000,21827760000,1024000,41.606704,-86.3556021,-193.09262,344.69385,-358.85977,0.00058205053,2.1875936e-05,0.0,0.002197328,0.028297106,0.97312516,0.99355125,-0.0004043681,-0.0023174433,0.0029783552,0.03677634,0.12106337,0.018590996,-1.0490477,0.07183822,229.40309,359.10324,0.3851349,0.4222838,0.14957543,0.120407164,inf,inf,inf,inf,1,1,1,1,2,0,2,1,48,1,1,1,0,0
21828264000,21828264000,1024000,41.606704,-86.3556021,-193.08734,344.68826,-358.3656,0.00058205053,2.1875936e-05,0.0,0.007265727,0.03027242,0.97900647,0.9922951,-0.0004043681,-0.0023174433,0.0029783552,0.017081412,-0.079281546,-0.011150788,-1.0491804,0.07183822,229.40309,358.60907,0.36554968,0.4183923,0.13974492,0.11683184,inf,inf,inf,inf,1,1,1,1,2,0,2,1,48,1,1,1,0,0
21828760000,21828760000,1024000,41.606704,-86.3556021,-193.08405,344.684,-357.86853,0.00058205053,2.1875936e-05,0.0,0.0018211378,0.038330168,0.98008424,0.99503785,-0.0004043681,-0.0023174433,0.0029783552,0.025766237,-0.007915566,-0.029642196,-1.0490328,0.07183822,229.40309,358.112,0.3679847,0.41715774,0.14110579,0.11712202,inf,inf,inf,inf,1,1,1,1,2,0,2,1,48,1,1,1,0,0
21829264000,21829264000,1024000,41.606704,-86.3556021,-193.07909,344.68484,-357.36136,0.00058205053,2.1875936e-05,0.0,-0.0006529536,0.041358106,0.97933805,0.9973928,-0.0004043681,-0.0023174433,0.0029783552,0.04713646,0.030032739,-0.05614391,-1.0491679,0.07183822,229.40309,357.60483,0.37075844,0.4165835,0.142385,0.11753023,inf,inf,inf,inf,1,1,1,1,2,0,2,1,48,1,1,1,0,0
21829760000,21829760000,1024000,41.606704,-86.3556021,-193.08208,344.6787,-356.8645,0.00058205053,2.1875936e-05,0.0,-0.0076770987,0.04129116,0.9842109,1.0033306,-0.0004043681,-0.0023174433,0.0029783552,-0.0411209,-0.008887285,-0.08369802,-1.0492731,0.07183822,229.40309,357.10797,0.3726039,0.41837487,0.14312944,0.118042536,inf,inf,inf,inf,1,1,1,1,2,0,2,1,48,1,1,1,0,0
21830264000,21830264000,1024000,41.606704,-86.3556021,-193.08353,344.6813,-356.35953,0.00058205053,2.1875936e-05,0.0,-0.0026640692,0.04294989,0.9794619,0.9986042,-0.0004043681,-0.0023174433,0.0029783552,0.05887567,0.086264916,-0.12635072,-1.0491638,0.07183822,229.40309,356.603,0.3761286,0.42086628,0.1450486,0.11892701,inf,inf,inf,inf,1,1,1,1,2,0,2,1,48,1,1,1,0,0
21830760000,21830760000,1024000,41.606704,-86.3556021,-193.08362,344.68738,-355.8597,0.00058205053,2.1875936e-05,0.0,-0.0007459591,0.04206139,0.97587705,0.9992161,-0.0004043681,-0.0023174433,0.0029783552,-0.17107849,0.0072518806,-1.3347436,-1.0491966,0.07183822,229.40309,356.10318,0.3771713,0.41954377,0.14503369,0.11889579,inf,inf,inf,inf,1,1,1,1,2,0,2,1,48,1,1,1,0,0
21831264000,21831264000,1024000,41.606704,-86.3556021,-193.07997,344.68796,-355.3627,0.00058205053,2.1875936e-05,0.0,-9.437538e-05,0.039238583,0.973386,0.99183816,-0.0004043681,-0.0023174433,0.0029783552,0.037078466,0.041525263,0.045228686,-1.0492136,0.07183822,229.40309,355.60617,0.35988787,0.41609502,0.13692889,0.115662515,inf,inf,inf,inf,1,1,1,1,2,0,2,1,48,1,1,1,0,0
21831760000,21831760000,1024000,41.606704,-86.3556021,-193.08008,344.69574,-354.8769,0.00058205053,2.1875936e-05,0.0,-0.0074935337,0.039527964,0.98382956,0.9943247,-0.0004043681,-0.0023174433,0.0029783552,0.011026668,-0.033332784,0.08019146,-1.0494735,0.07183822,229.40309,355.12036,0.383286,0.4210737,0.14822453,0.12006878,inf,inf,inf,inf,1,1,1,1,2,0,2,1,48,1,1,1,0,0
21832264000,21832264000,1024000,41.606704,-86.3556021,-193.07848,344.69986,-354.3755,0.00058205053,2.1875936e-05,0.0,-0.011805593,0.025653804,0.9898361,0.99834293,-0.0004043681,-0.0023174433,0.0029783552,0.014032459,-0.028806137,0.04325894,-1.0495473,0.07183822,229.40309,354.61896,0.3643257,0.41459137,0.13890357,0.11629411,inf,inf,inf,inf,1,1,1,1,2,0,2,1,48,1,1,1,0,0
21832760000,21832760000,1024000,41.606704,-86.3556021,-193.07516,344.6999,-353.8908,0.00058205053,2.1875936e-05,0.0,-0.010707609,0.025290767,0.99934363,0.99907726,-0.0004043681,-0.0023174433,0.0029783552,-0.007973169,-0.01144498,0.061772693,-1.0496475,0.07183822,229.40309,354.13428,0.3669514,0.41662067,0.1404411,0.117018595,inf,inf,inf,inf,1,1,1,1,2,0,2,1,48,1,1,1,0,0
21833264000,21833264000,1024000,41.606704,-86.3556021,-193.06961,344.7067,-353.38126,0.00058205053,2.1875936e-05,0.0,-0.010828726,0.02498509,1.0029247,1.0063794,-0.0004043681,-0.0023174433,0.0029783552,-0.12836535,-0.09566491,-0.093596116,-1.0496002,0.07183822,229.40309,353.62473,0.36872226,0.4160069,0.14082864,0.117190644,inf,inf,inf,inf,1,1,1,1,2,0,2,1,48,1,1,1,0,0
21833760000,21833760000,1024000,41.606704,-86.3556021,-193.0611,344.71335,-352.88766,0.00058205053,2.1875936e-05,0.0,-0.012578208,0.021865696,0.9959475,0.99848586,-0.0004043681,-0.0023174433,0.0029783552,0.32367873,0.23874602,0.2802386,-1.0493476,0.07183822,229.40309,353.13113,0.3708034,0.41789043,0.14193997,0.11774862,inf,inf,inf,inf,1,1,1,1,2,0,2,1,48,1,1,1,0,0
21834256000,21834256000,1024000,41.606704,-86.3556021,-193.05267,344.71533,-352.39902,0.00058205053,2.1875936e-05,0.0,-0.018592568,0.01692344,1.002742,0.9987987,-0.0004043681,-0.0023174433,0.0029783552,-0.0844484,-0.025521971,0.09070329,-1.0493293,0.07183822,229.40309,352.6425,0.37386614,0.4198566,0.14378466,0.11850469,inf,inf,inf,inf,1,1,1,1,2,0,2,1,48,1,1,1,0,0
21834760000,21834760000,1024000,41.606704,-86.3556021,-193.05403,344.7214,-351.8981,0.00058205053,2.1875936e-05,0.0,-0.027406024,0.017530259,1.0053349,0.9984074,-0.0004043681,-0.0023174433,0.0029783552,-0.042100992,-0.038299557,0.09929661,-1.0490125,0.07183822,229.40309,352.14157,0.37589553,0.4192024,0.14433153,0.11870299,inf,inf,inf,inf,1,1,1,1,2,0,2,1,48,1,1,1,0,0
21835264000,21835264000,1024000,41.606704,-86.3556021,-193.06023,344.72205,-351.40323,0.00058205053,2.1875936e-05,0.0,-0.026792081,0.008745146,1.0134001,0.99961746,-0.0004043681,-0.0023174433,0.0029783552,0.047436874,-0.0061984784,-0.00020867944,-1.0489051,0.07183822,229.40309,351.6467,0.35901424,0.41575316,0.13641763,0.11550826,inf,inf,inf,inf,1,1,1,1,2,0,2,1,48,1,1,1,0,0
21835760000,21835760000,1024000,41.606704,-86.3556021,-193.06471,344.72116,-350.90384,0.00058205053,2.1875936e-05,0.0,-0.0227052,0.009446104,1.0132817,1.0021557,-0.0004043681,-0.0023174433,0.0029783552,0.007908413,0.015948422,-0.010540771,-1.049488,0.07183822,229.40309,351.1473,0.38090113,0.42040488,0.14657186,0.11958933,inf,inf,inf,inf,1,1,1,1,2,0,2,1,48,1,1,1,0,0
21836256000,21836256000,1024000,41.606704,-86.3556021,-193.06317,344.7226,-350.41464,0.00058205053,2.1875936e-05,0.0,-0.016851863,0.015992735,1.0191077,1.0019848,-0.0004043681,-0.0023174433,0.0029783552,-0.07920018,0.029057633,-0.17306493,-1.0493957,0.07183822,229.40309,350.6581,0.36191556,0.41338405,0.13746761,0.11570246,inf,inf,inf,inf,1,1,1,1,2,0,2,1,48,1,1,1,0,0
21836760000,21836760000,1024000,41.606704,-86.3556021,-193.06175,344.72412,-349.91074,0.00058205053,2.1875936e-05,0.0,-0.018231982,0.014604443,1.0212328,1.0049907,-0.0004043681,-0.0023174433,0.0029783552,-0.21993893,-0.15584207,1.384232,-1.0493621,0.07183822,229.40309,350.1542,0.36533013,0.41597462,0.13953993,0.11664233,inf,inf,inf,inf,1,1,1,1,2,0,2,1,48,1,1,1,0,0
21837264000,21837264000,1024000,41.606704,-86.3556021,-193.06482,344.72775,-349.40283,0.00058205053,2.1875936e-05,0.0,-0.024105268,0.01165839,1.0162913,1.0027131,-0.0004043681,-0.0023174433,0.0029783552,-0.0015773107,-0.058851536,0.010342274,-1.0495126,0.07183822,229.40309,349.6463,0.36730996,0.41542462,0.14016953,0.11688409,inf,inf,inf,inf,1,1,1,1,2,0,2,1,48,1,1,1,0,0
21837760000,21837760000,1024000,41.606704,-86.3556021,-193.06386,344.71918,-348.90176,0.00058205053,2.1875936e-05,0.0,-0.017688837,0.010057584,1.0151587,1.0059608,-0.0004043681,-0.0023174433,0.0029783552,-0.0018230064,-0.03707688,-0.019642588,-1.0494802,0.07183822,229.40309,349.14523,0.3695648,0.4172925,0.14139858,0.117482096,inf,inf,inf,inf,1,1,1,1,2,0,2,1,48,1,1,1,0,0
21838264000,21838264000,1024000,41.606704,-86.3556021,-193.06277,344.71295,-348.38455,0.00058205053,2.1875936e-05,0.0,-0.01997603,0.017103923,1.0015202,1.0030355,-0.0004043681,-0.0023174433,0.0029783552,0.027664693,0.06991637,0.027147057,-1.0494475,0.07183822,229.40309,348.62802,0.37211204,0.41966093,0.14252983,0.11815116,inf,inf,inf,inf,1,1,1,1,2,0,2,1,48,1,1,1,0,0
21838760000,21838760000,1024000,41.606704,-86.3556021,-193.05559,344.70398,-347.88058,0.00058205053,2.1875936e-05,0.0,-0.020671839,0.01704878,0.9859015,0.9939986,-0.0004043681,-0.0023174433,0.0029783552,0.014067706,0.10831979,0.0050467737,-1.0493977,0.07183822,229.40309,348.12405,0.37369236,0.42131442,0.14319947,0.118552715,inf,inf,inf,inf,1,1,1,1,2,0,2,1,48,1,1,1,0,0
21839256000,21839256000,1024000,41.606704,-86.3556021,-193.04987,344.69708,-347.39124,0.00058205053,2.1875936e-05,0.0,-0.02924476,0.025179505,0.99350804,0.9966674,-0.0004043681,-0.0023174433,0.0029783552,-0.011919287,-0.0535291,-0.0017611941,-1.0494474,0.07183822,229.40309,347.6347,0.356709,0.41423336,0.13535257,0.11488153,inf,inf,inf,inf,1,1,1,1,2,0,2,1,48,1,1,1,0,0
21839760000,21839760000,1024000,41.606704,-86.3556021,-193.05183,344.69635,-346.88727,0.00058205053,2.1875936e-05,0.0,-0.032749806,0.028746087,0.99952596,1.0035905,-0.0004043681,-0.0023174433,0.0029783552,0.078465596,0.1176365,-0.11656346,-1.0493613,0.07183822,229.40309,347.13074,0.37918398,0.4223847,0.14590034,0.11953351,inf,inf,inf,inf,1,1,1,1,2,0,2,1,48,1,1,1,0,0
21840264000,21840264000,1024000,41.606704,-86.3556021,-193.05124,344.68875,-346.3825,0.00058205053,2.1875936e-05,0.0,-0.029238379,0.030663343,0.994138,0.9992767,-0.0004043681,-0.0023174433,0.0029783552,-0.19923472,-0.0048792968,-1.3459586,-1.0493811,0.07183822,229.40309,346.62598,0.3614127,0.41573933,0.13745813,0.115860924,inf,inf,inf,inf,1,1,1,1,2,0,2,1,48,1,1,1,0,0
21840760000,21840760000,1024000,41.606704,-86.3556021,-193.05693,344.68353,-345.87848,0.00058205053,2.1875936e-05,0.0,-0.034157492,0.033583056,0.9877322,0.9992838,-0.0004043681,-0.0023174433,0.0029783552,-0.09662204,0.13457818,0.05243526,-1.0494255,0.07183822,229.40309,346.12195,0.38484696,0.42353103,0.14872271,0.12053568,inf,inf,inf,inf,1,1,1,1,2,0,2,1,48,1,1,1,0,0
21841264000,21841264000,1024000,41.606704,-86.3556021,-193.06534,344.6852,-345.36932,0.00058205053,2.1875936e-05,0.0,-0.03345486,0.03959212,0.9818243,0.99817497,-0.0004043681,-0.0023174433,0.0029783552,-0.09287916,0.04962589,0.030997146,-1.0493729,0.07183822,229.40309,345.6128,0.3654839,0.41669324,0.1392331,0.11664849,inf,inf,inf,inf,1,1,1,1,2,0,2,1,48,1,1,1,0,0
21841760000,21841760000,1024000,41.606704,-86.3556021,-193.06836,344.6859,-344.86783,0.00058205053,2.1875936e-05,0.0,-0.02826573,0.03801537,0.9745199,0.9961225,-0.0004043681,-0.0023174433,0.0029783552,-0.014115959,-0.009124309,-0.012995738,-1.0497199,0.07183822,229.40309,345.1113,0.36790523,0.41564834,0.14068453,0.11697853,inf,inf,inf,inf,1,1,1,1,2,0,2,1,48,1,1,1,0,0
21842256000,21842256000,1024000,41.606704,-86.3556021,-193.07028,344.69528,-344.384,0.00058205053,2.1875936e-05,0.0,-0.026317064,0.039054327,0.9786369,0.99077183,-0.0004043681,-0.0023174433,0.0029783552,0.0028041685,0.0008929242,-0.028160462,-1.0497855,0.07183822,229.40309,344.62747,0.3699723,0.41753426,0.1415913,0.117561124,inf,inf,inf,inf,1,1,1,1,2,0,2,1,48,1,1,1,0,0
21842760000,21842760000,1024000,41.606704,-86.3556021,-193.05852,344.70294,-343.88788,0.00058205053,2.1875936e-05,0.0,-0.018968886,0.03267057,0.9979943,1.0031718,-0.0004043681,-0.0023174433,0.0029783552,-0.04411646,0.040334456,-0.12643547,-1.0497056,0.07183822,229.40309,344.13135,0.37250295,0.41992688,0.14262962,0.11824085,inf,inf,inf,inf,1,1,1,1,2,0,2,1,48,1,1,1,0,0
21843264000,21843264000,1024000,41.606704,-86.3556021,-193.04013,344.71207,-343.39102,0.00058205053,2.1875936e-05,0.0,-0.023934154,0.025310488,1.0005314,0.99877006,-0.0004043681,-0.0023174433,0.0029783552,0.23996015,0.09845701,0.16918771,-1.0499856,0.07183822,229.40309,343.6345,0.37600935,0.41938207,0.14452405,0.11875373,inf,inf,inf,inf,1,1,1,1,2,0,2,1,48,1,1,1,0,0
21843760000,21843760000,1024000,41.606704,-86.3556021,-193.0314,344.7167,-342.89456,0.00058205053,2.1875936e-05,0.0,-0.034804136,0.018113615,1.0047737,1.0034137,-0.0004043681,-0.0023174433,0.0029783552,-0.041865427,0.12486679,0.031798083,-1.0496867,0.07183822,229.40309,343.13803,0.37704927,0.42107952,0.14455841,0.11907439,inf,inf,inf,inf,1,1,1,1,2,0,2,1,48,1,1,1,0,0
21844256000,21844256000,1024000,41.606704,-86.3556021,-193.02307,344.716,-342.3904,0.00058205053,2.1875936e-05,0.0,-0.04335894,0.011557332,0.99636394,1.0017244,-0.0004043681,-0.0023174433,0.0029783552,0.009304747,-0.018296586,-0.061953504,-1.0495868,0.07183822,229.40309,342.63388,0.35916004,0.41414252,0.13621868,0.11533084,inf,inf,inf,inf,1,1,1,1,2,0,2,1,48,1,1,1,0,0
21844760000,21844760000,1024000,41.606704,-86.3556021,-193.02518,344.7179,-341.88635,0.00058205053,2.1875936e-05,0.0,-0.053111788,0.009476635,0.9918825,0.997592,-0.0004043681,-0.0023174433,0.0029783552,-0.07794543,-0.06815847,-0.0031302383,-1.0494404,0.07183822,229.40309,342.12982,0.3830772,0.42265698,0.147816,0.12023901,inf,inf,inf,inf,1,1,1,1,2,0,2,1,48,1,1,1,0,0
21845264000,21845264000,1024000,41.606704,-86.3556021,-193.03716,344.7172,-341.391,0.00058205053,2.1875936e-05,0.0,-0.050610118,0.008466802,0.99673736,0.99517643,-0.0004043681,-0.0023174433,0.0029783552,0.050190452,-0.09399424,-0.011031578,-1.0492203,0.07183822,229.40309,341.63446,0.3641933,0.41604283,0.1386209,0.11643298,inf,inf,inf,inf,1,1,1,1,2,0,2,1,48,1,1,1,0,0
21845760000,21845760000,1024000,41.606704,-86.3556021,-193.04132,344.71838,-340.89926,0.00058205053,2.1875936e-05,0.0,-0.041150365,0.009874048,1.0061066,1.0012486,-0.0004043681,-0.0023174433,0.0029783552,-0.09649378,-0.008835187,-0.1188927,-1.0491871,0.07183822,229.40309,341.14273,0.3668229,0.41511172,0.1401671,0.11681623,inf,inf,inf,inf,1,1,1,1,2,0,2,1,48,1,1,1,0,0
21846256000,21846256000,1024000,41.606704,-86.3556021,-193.05017,344.72284,-340.4087,0.00058205053,2.1875936e-05,0.0,-0.036201373,0.010761712,1.0073044,0.9979914,-0.0004043681,-0.0023174433,0.0029783552,0.2713434,0.16993856,0.20086758,-1.0489082,0.07183822,229.40309,340.65216,0.36786073,0.41691804,0.14020549,0.11715996,inf,inf,inf,inf,1,1,1,1,2,0,2,1,48,1,1,1,0,0
21846760000,21846760000,1024000,41.606704,-86.3556021,-193.05667,344.73233,-339.90286,0.00058205053,2.1875936e-05,0.0,-0.029904135,0.010093226,1.0126429,1.0050337,-0.0004043681,-0.0023174433,0.0029783552,0.089580856,-0.034495734,0.09073589,-1.0488675,0.07183822,229.40309,340.14633,0.37057894,0.4165014,0.14158988,0.117561735,inf,inf,inf,inf,1,1,1,1,2,0,2,1,48,1,1,1,0,0
21847264000,21847264000,1024000,41.606704,-86.3556021,-193.06277,344.73495,-339.39246,0.00058205053,2.1875936e-05,0.0,-0.028559612,-0.0036199235,1.0034486,1.0012373,-0.0004043681,-0.0023174433,0.0029783552,0.06469144,-0.037954677,0.0028982125,-1.0487962,0.07183822,229.40309,339.63593,0.37424585,0.41911384,0.14373596,0.118491314,inf,inf,inf,inf,1,1,1,1,2,0,2,1,48,1,1,1,0,0
21847760000,21847760000,1024000,41.606704,-86.3556021,-193.06763,344.7345,-338.90427,0.00058205053,2.1875936e-05,0.0,-0.021829797,-0.003910405,0.99701434,0.98872524,-0.0004043681,-0.0023174433,0.0029783552,0.03599208,-0.04296261,0.055446222,-1.0488396,0.07183822,229.40309,339.14774,0.37560457,0.42083117,0.1440552,0.1188568,inf,inf,inf,inf,1,1,1,1,2,0,2,1,48,1,1,1,0,0
21848264000,21848264000,1024000,41.606704,-86.3556021,-193.06798,344.73273,-338.40063,0.00058205053,2.1875936e-05,0.0,-0.015278613,-0.00215684,1.0094883,1.0026803,-0.0004043681,-0.0023174433,0.0029783552,-0.017656472,0.064864956,-0.007284868,-1.0492593,0.07183822,229.40309,338.6441,0.35881796,0.4143676,0.13624966,0.115314834,inf,inf,inf,inf,1,1,1,1,2,0,2,1,48,1,1,1,0,0
21848760000,21848760000,1024000,41.606704,-86.3556021,-193.0716,344.72977,-337.90436,0.00058205053,2.1875936e-05,0.0,-0.012861893,0.0001520882,1.0051895,0.9984715,-0.0004043681,-0.0023174433,0.0029783552,-0.10481621,0.009960857,-0.14589173,-1.0489479,0.07183822,229.40309,338.14783,0.38067856,0.42188153,0.14637332,0.1197169,inf,inf,inf,inf,1,1,1,1,2,0,2,1,48,1,1,1,0,0
21849264000,21849264000,1024000,41.606704,-86.3556021,-193.07275,344.71625,-337.4048,0.00058205053,2.1875936e-05,0.0,-0.008192744,0.0038547504,1.0093942,0.9989873,-0.0004043681,-0.0023174433,0.0029783552,0.10528289,0.06820384,-0.063957706,-1.0490516,0.07183822,229.40309,337.64825,0.36242798,0.4151511,0.13765983,0.11595029,inf,inf,inf,inf,1,1,1,1,2,0,2,1,48,1,1,1,0,0
21849760000,21849760000,1024000,41.606704,-86.3556021,-193.07758,344.7068,-336.9175,0.00058205053,2.1875936e-05,0.0,-0.009820407,0.009117365,1.0179374,1.0000687,-0.0004043681,-0.0023174433,0.0029783552,0.010882819,0.020484168,-0.029676655,-1.0489954,0.07183822,229.40309,337.16098,0.36520073,0.41689014,0.13937294,0.11665947,inf,inf,inf,inf,1,1,1,1,2,0,2,1,48,1,1,1,0,0
21850256000,21850256000,1024000,41.606704,-86.3556021,-193.08145,344.70633,-336.42157,0.00058205053,2.1875936e-05,0.0,-0.0029391926,0.02144127,1.0203046,1.0016258,-0.0004043681,-0.0023174433,0.0029783552,0.03600646,0.025459008,0.019005435,-1.0492533,0.07183822,229.40309,336.66504,0.36651844,0.41839254,0.13966839,0.11700924,inf,inf,inf,inf,1,1,1,1,2,0,2,1,48,1,1,1,0,0
21850760000,21850760000,1024000,41.606704,-86.3556021,-193.08334,344.70245,-335.92093,0.00058205053,2.1875936e-05,0.0,-0.007366993,0.02543871,1.0185224,0.9970697,-0.0004043681,-0.0023174433,0.0029783552,-0.018896783,0.029938811,0.0020199753,-1.0491912,0.07183822,229.40309,336.1644,0.369466,0.41773129,0.14122324,0.117439866,inf,inf,inf,inf,1,1,1,1,2,0,2,1,48,1,1,1,0,0
