timestamp,timestamp_sample,ref_timestamp,ref_lat,ref_lon,x,y,z,delta_xy[0],delta_xy[1],delta_z,vx,vy,vz,z_deriv,delta_vxy[0],delta_vxy[1],delta_vz,ax,ay,az,heading,delta_heading,ref_alt,dist_bottom,eph,epv,evh,evv,vxy_max,vz_max,hagl_min,hagl_max,xy_valid,z_valid,v_xy_valid,v_z_valid,xy_reset_counter,z_reset_counter,vxy_reset_counter,vz_reset_counter,heading_reset_counter,heading_good_for_control,xy_global,z_global,dist_bottom_valid,dist_bottom_sensor_bitfield
829260000,829260000,1036000,41.606704,-86.3556021,-0.44879237,-1.1150172,0.13013339,0.0004888793,0.00011499188,0.0,-0.00060172996,0.0030457804,0.00034596794,-0.00056259637,-0.00022161186,-0.012446839,-0.016992074,-0.034176107,-0.08496068,-0.023428412,-1.1102947,-0.0131517695,229.40579,0.100182325,0.05607774,0.0601225,0.00810898,0.0057621873,inf,inf,inf,inf,1,1,1,1,2,0,2,1,4,0,1,1,1,0
829268000,829268000,1036000,41.606704,-86.3556021,-0.44880867,-1.1150374,0.13013102,0.0004888793,0.00011499188,0.0,-0.0008857519,0.0021015767,-7.299369e-05,-0.00097419193,-0.00022161186,-0.012446839,-0.016992074,-0.004426674,-0.09554993,-0.053358324,-1.1103318,-0.0131517695,229.40579,0.10018627,0.05607791,0.060122587,0.0090553295,0.0064422926,inf,inf,inf,inf,1,1,1,1,2,0,2,1,4,0,1,1,1,0
829276000,829276000,1036000,41.606704,-86.3556021,-0.44882566,-1.1150638,0.13012686,0.0004888793,0.00011499188,0.0,-0.0008562911,0.0015349258,-3.5532023e-05,-0.00092927605,-0.00022161186,-0.012446839,-0.016992074,0.00679528,-0.030481962,0.033122424,-1.1103404,-0.0131517695,229.40579,0.10019663,0.05607816,0.060122713,0.0099176755,0.007064228,inf,inf,inf,inf,1,1,1,1,2,0,2,1,4,0,1,1,1,0
829284000,829284000,1036000,41.606704,-86.3556021,-0.4488426,-1.1150923,0.13012493,0.0004888793,0.00011499188,0.0,-0.0008348147,0.0015224164,0.00036858625,-0.00051745854,-0.00022161186,-0.012446839,-0.016992074,0.0091164475,0.03829326,0.06093078,-1.1103431,-0.0131517695,229.40579,0.10021284,0.05607851,0.060114022,0.010716957,0.007642204,inf,inf,inf,inf,1,1,1,1,2,0,2,1,4,0,1,1,1,0
829292000,829292000,1036000,41.606704,-86.3556021,-0.44886088,-1.1151202,0.13012555,0.0004888793,0.00011499188,0.0,-0.0012680558,0.0015121232,0.00045868522,-0.00041958524,-0.00022161186,-0.012446839,-0.016992074,-0.07407974,0.0046134363,-0.00025803954,-1.1103394,-0.0131517695,229.40579,0.1002129,0.056078978,0.060114257,0.011467188,0.008185543,inf,inf,inf,inf,1,1,1,1,2,0,2,1,4,0,1,1,1,0
829300000,829300000,1036000,41.606704,-86.3556021,-0.44888055,-1.1151474,0.13012756,0.0004888793,0.00011499188,0.0,-0.0008104906,0.0017409902,0.0008147599,-5.56654e-05,-0.00022161186,-0.012446839,-0.016992074,0.12415244,0.06721643,0.06835994,-1.1103321,-0.0131517695,229.40579,0.100207135,0.056079585,0.06011456,0.012174936,0.008700738,inf,inf,inf,inf,1,1,1,1,2,0,2,1,4,0,1,1,1,0
829308000,829308000,1036000,41.606704,-86.3556021,-0.44889662,-1.1151748,0.13013479,0.0004888793,0.00011499188,0.0,-0.0008796992,0.0011101887,0.0016237956,0.0007612858,-0.00022161186,-0.012446839,-0.016992074,-0.07036646,-0.10756316,0.0980179,-1.1103182,-0.0131517695,229.40579,0.10020423,0.056080353,0.060114942,0.012848456,0.00919252,inf,inf,inf,inf,1,1,1,1,2,0,2,1,4,0,1,1,1,0
829316000,829316000,1036000,41.606704,-86.3556021,-0.44891736,-1.1152083,0.13015448,0.0004888793,0.00011499188,0.0,-0.0015714224,0.0004630129,0.0038750798,0.0030205555,-0.00022161186,-0.012446839,-0.016992074,-0.049830254,-0.029730566,0.27343157,-1.1103095,-0.0131517695,229.40579,0.10019289,0.056081295,0.06011541,0.013493701,0.009664465,inf,inf,inf,inf,1,1,1,1,2,0,2,1,4,0,1,1,1,0
829324000,829324000,1036000,41.606704,-86.3556021,-0.44893998,-1.1152438,0.1301754,0.0004888793,0.00011499188,0.0,-0.0015412103,0.00043489452,0.0017579036,0.0009114307,-0.00022161186,-0.012446839,-0.016992074,-0.0058875494,0.023478176,-0.30587617,-1.110319,-0.0131517695,229.40579,0.10017957,0.05608244,0.060115974,0.014113949,0.010119345,inf,inf,inf,inf,1,1,1,1,2,0,2,1,4,0,1,1,1,0
829332000,829332000,1036000,41.606704,-86.3556021,-0.44896376,-1.1152785,0.13018686,0.0004888793,0.00011499188,0.0,-0.00165524,0.0005360553,0.0018844251,0.0010460663,-0.00022161186,-0.012446839,-0.016992074,0.022660645,0.033820737,0.077706695,-1.1103262,-0.0131517695,229.40579,0.100174874,0.0560838,0.06011665,0.014712452,0.010559365,inf,inf,inf,inf,1,1,1,1,2,0,2,1,4,0,1,1,1,0
829340000,829340000,1036000,41.606704,-86.3556021,-0.44898602,-1.1153114,0.13020267,0.0004888793,0.00011499188,0.0,-0.0013735525,0.00078216835,0.0025586062,0.0017284218,-0.00022161186,-0.012446839,-0.016992074,0.020691216,0.05047294,0.082832694,-1.1103275,-0.0131517695,229.40579,0.10016467,0.056085397,0.060117442,0.01529179,0.010986313,inf,inf,inf,inf,1,1,1,1,2,0,2,1,4,0,1,1,1,0
829348000,829348000,1036000,41.606704,-86.3556021,-0.4490071,-1.1153436,0.13022391,0.0004888793,0.00011499188,0.0,-0.0012348406,0.0004700974,0.0031679275,0.0023461583,-0.00022161186,-0.012446839,-0.016992074,0.03588147,-0.04757995,0.07849366,-1.1102954,-0.0131517695,229.40579,0.10015251,0.056087255,0.060109492,0.015854228,0.011401659,inf,inf,inf,inf,1,1,1,1,2,0,2,1,4,0,1,1,1,0
829356000,829356000,1036000,41.606704,-86.3556021,-0.4490279,-1.1153792,0.13025066,0.0004888793,0.00011499188,0.0,-0.0014904338,-3.559637e-05,0.0039097783,0.0030964708,-0.00022161186,-0.012446839,-0.016992074,-0.05854881,-0.035818785,0.09961512,-1.1102929,-0.0131517695,229.40579,0.10012773,0.056089394,0.060110554,0.016400991,0.011806628,inf,inf,inf,inf,1,1,1,1,2,0,2,1,4,0,1,1,1,0
829364000,829364000,1036000,41.606704,-86.3556021,-0.44905117,-1.1154172,0.13028362,0.0004888793,0.00011499188,0.0,-0.0016213097,-0.0003145501,0.004562011,0.0037572081,-0.00022161186,-0.012446839,-0.016992074,0.0191552,-0.022051333,0.058554977,-1.1102428,-0.0131517695,229.40579,0.1000987,0.056091838,0.06011176,0.016933616,0.012202253,inf,inf,inf,inf,1,1,1,1,2,0,2,1,4,0,1,1,1,0
829372000,829372000,1036000,41.606704,-86.3556021,-0.44907463,-1.1154561,0.13031791,0.0004888793,0.00011499188,0.0,-0.0017783697,-0.0003142589,0.004300831,0.0035045724,-0.00022161186,-0.012446839,-0.016992074,-0.04242182,0.031889465,-0.03294839,-1.110233,-0.0131517695,229.40579,0.10007052,0.056094598,0.06011313,0.017453961,0.012589416,inf,inf,inf,inf,1,1,1,1,2,0,2,1,4,0,1,1,1,0
829380000,829380000,1036000,41.606704,-86.3556021,-0.4491003,-1.1154937,0.13035108,0.0004888793,0.00011499188,0.0,-0.0020015235,-0.00015580172,0.0041962964,0.003408619,-0.00022161186,-0.012446839,-0.016992074,-0.0021346868,0.043372918,-0.022830503,-1.1102791,-0.0131517695,229.40579,0.1000454,0.056097705,0.06011467,0.0179626,0.01296887,inf,inf,inf,inf,1,1,1,1,2,0,2,1,4,0,1,1,1,0
829388000,829388000,1036000,41.606704,-86.3556021,-0.4491268,-1.1155283,0.13038975,0.0004888793,0.00011499188,0.0,-0.0022056354,0.00023953963,0.005826375,0.005047311,-0.00022161186,-0.012446839,-0.016992074,-0.04937055,0.05928279,0.24059315,-1.1103402,-0.0131517695,229.40579,0.100019604,0.056101177,0.060116395,0.018460397,0.013341275,inf,inf,inf,inf,1,1,1,1,2,0,2,1,4,0,1,1,1,0
829396000,829396000,1036000,41.606704,-86.3556021,-0.44915575,-1.1155593,0.13042794,0.0004888793,0.00011499188,0.0,-0.0024003722,0.0005907316,0.0036531435,0.0028827253,-0.00022161186,-0.012446839,-0.016992074,0.007845603,0.052090157,-0.33030197,-1.1104225,-0.0131517695,229.40579,0.100006685,0.05610504,0.060118314,0.01894727,0.0137072075,inf,inf,inf,inf,1,1,1,1,2,0,2,1,4,0,1,1,1,0
829404000,829404000,1036000,41.606704,-86.3556021,-0.44918546,-1.1155881,0.13045712,0.0004888793,0.00011499188,0.0,-0.0025606237,0.00069632754,0.003731499,0.0029706862,-0.00022161186,-0.012446839,-0.016992074,-0.021228636,0.03857334,0.05718407,-1.1104287,-0.0131517695,229.40579,0.10003261,0.056109313,0.06011157,0.0194291,0.01406717,inf,inf,inf,inf,1,1,1,1,2,0,2,1,4,0,1,1,1,0
829412000,829412000,1036000,41.606704,-86.3556021,-0.44921547,-1.1156147,0.1304876,0.0004888793,0.00011499188,0.0,-0.002459986,0.000851555,0.0037317812,0.0029805661,-0.00022161186,-0.012446839,-0.016992074,0.022031901,0.015303154,-0.005252722,-1.1104352,-0.0131517695,229.40579,0.100020304,0.056114014,0.06011391,0.019900687,0.014421613,inf,inf,inf,inf,1,1,1,1,2,0,2,1,4,0,1,1,1,0
829420000,829420000,1036000,41.606704,-86.3556021,-0.44924474,-1.1156415,0.1305173,0.0004888793,0.00011499188,0.0,-0.0024570916,0.0006016546,0.00344562,0.002703993,-0.00022161186,-0.012446839,-0.016992074,-0.0030151387,-0.0030484593,-0.0548978,-1.1104401,-0.0131517695,229.40579,0.10001212,0.056119174,0.06011648,0.020364074,0.014770931,inf,inf,inf,inf,1,1,1,1,2,0,2,1,4,0,1,1,1,0
829428000,829428000,1036000,41.606704,-86.3556021,-0.44927338,-1.1156669,0.1305445,0.0004888793,0.00011499188,0.0,-0.0022885096,0.0009426618,0.003259479,0.002527429,-0.00022161186,-0.012446839,-0.016992074,0.027652575,0.048525054,0.0050570183,-1.1104441,-0.0131517695,229.40579,0.10001172,0.056124814,0.060119294,0.0208204,0.015115479,inf,inf,inf,inf,1,1,1,1,2,0,2,1,4,0,1,1,1,0
829436000,829436000,1036000,41.606704,-86.3556021,-0.4492949,-1.1156869,0.13055815,0.0004888793,0.00011499188,0.0,-0.0021882036,0.000820863,0.0036034833,0.00285313,-0.00022161186,-0.012446839,-0.016992074,0.005596006,-0.032761704,0.12712733,-1.1104567,-0.0131517695,229.40579,0.1,0.056047298,0.060102243,0.0014142136,0.001,inf,inf,inf,inf,1,1,1,1,2,0,2,1,4,0,1,1,1,0
829444000,829444000,1036000,41.606704,-86.3556021,-0.44931626,-1.1157085,0.13057455,0.0004888793,0.00011499188,0.0,-0.0023726423,0.0005917548,0.003067922,0.0022999586,-0.00022161186,-0.012446839,-0.016992074,-0.032374576,0.017536594,-0.24090153,-1.1104598,-0.0131517695,229.40579,0.1,0.056047328,0.060102254,0.0042136176,0.002983439,inf,inf,inf,inf,1,1,1,1,2,0,2,1,4,0,1,1,1,0
829452000,829452000,1036000,41.606704,-86.3556021,-0.44933817,-1.1157285,0.1305767,0.0004888793,0.00011499188,0.0,-0.00237761,0.00075654197,0.0014772369,0.00069234346,-0.00022161186,-0.012446839,-0.016992074,0.008155028,0.013134165,-0.051528275,-1.110449,-0.0131517695,229.40579,0.1,0.05604736,0.060102273,0.0057993024,0.0041111633,inf,inf,inf,inf,1,1,1,1,2,0,2,1,4,0,1,1,1,0
829460000,829460000,1036000,41.606704,-86.3556021,-0.44935796,-1.1157466,0.13057673,0.0004888793,0.00011499188,0.0,-0.0020536839,0.000901231,0.002224538,0.0014233822,-0.00022161186,-0.012446839,-0.016992074,0.02584371,0.023959477,0.12724282,-1.1104568,-0.0131517695,229.40579,0.1,0.056047425,0.060102306,0.007044976,0.0050002276,inf,inf,inf,inf,1,1,1,1,2,0,2,1,4,0,1,1,1,0
829468000,829468000,1036000,41.606704,-86.3556021,-0.44937834,-1.1157638,0.13058136,0.0004888793,0.00011499188,0.0,-0.0026839457,0.0006908547,0.0027217807,0.0019049296,-0.00022161186,-0.012446839,-0.016992074,-0.102068886,-0.037458647,0.079579584,-1.1104712,-0.0131517695,229.40579,0.1,0.056047533,0.060093503,0.008108255,0.0057621836,inf,inf,inf,inf,1,1,1,1,2,0,2,1,4,0,1,1,1,0
829476000,829476000,1036000,41.606704,-86.3556021,-0.4494013,-1.1157833,0.13058893,0.0004888793,0.00011499188,0.0,-0.0026477939,0.00018898047,0.003005486,0.0021735854,-0.00022161186,-0.012446839,-0.016992074,0.021997107,-0.051500425,0.027478607,-1.1104923,-0.0131517695,229.40579,0.1,0.056047704,0.06009359,0.00905563,0.0064422903,inf,inf,inf,inf,1,1,1,1,2,0,2,1,4,0,1,1,1,0
829484000,829484000,1036000,41.606704,-86.3556021,-0.44942364,-1.1158055,0.13059643,0.0004888793,0.00011499188,0.0,-0.0027156868,-0.00018386194,0.0029494425,0.0021031257,-0.00022161186,-0.012446839,-0.016992074,-0.0087450715,-0.034186248,0.014441956,-1.1104937,-0.0131517695,229.40579,0.1,0.056047954,0.060093716,0.009918384,0.0070642256,inf,inf,inf,inf,1,1,1,1,2,0,2,1,4,0,1,1,1,0
829492000,829492000,1036000,41.606704,-86.3556021,-0.44944534,-1.1158296,0.13060339,0.0004888793,0.00011499188,0.0,-0.0026352764,-0.0005339302,0.0029266612,0.002066549,-0.00022161186,-0.012446839,-0.016992074,0.0041147294,-0.039593037,0.0012385957,-1.1104846,-0.0131517695,229.40579,0.1,0.0560483,0.06009389,0.010717709,0.0076422067,inf,inf,inf,inf,1,1,1,1,2,0,2,1,4,0,1,1,1,0
829500000,829500000,1036000,41.606704,-86.3556021,-0.44946635,-1.1158556,0.13060907,0.0004888793,0.00011499188,0.0,-0.0027377908,-0.00091512623,0.003182748,0.002309449,-0.00022161186,-0.012446839,-0.016992074,-0.04022444,-0.042879485,0.14094444,-1.1104795,-0.0131517695,229.40579,0.1,0.05604877,0.06009413,0.011467022,0.008185546,inf,inf,inf,inf,1,1,1,1,2,0,2,1,4,0,1,1,1,0
829508000,829508000,1036000,41.606704,-86.3556021,-0.44949096,-1.1158824,0.13061874,0.0004888793,0.00011499188,0.0,-0.003536681,-0.00092486944,0.0028074062,0.0019215167,-0.00022161186,-0.012446839,-0.016992074,-0.09664955,0.015730172,-0.24740402,-1.1104884,-0.0131517695,229.40579,0.1,0.056049377,0.06009443,0.012175441,0.008700743,inf,inf,inf,inf,1,1,1,1,2,0,2,1,4,0,1,1,1,0
829516000,829516000,1036000,41.606704,-86.3556021,-0.44951817,-1.1159075,0.13061312,0.0004888793,0.00011499188,0.0,-0.003418092,-0.00071947195,0.0008610463,-3.6810598e-05,-0.00022161186,-0.012446839,-0.016992074,0.039402124,0.04710506,-0.096095785,-1.110493,-0.0131517695,229.40579,0.1,0.056050144,0.06009481,0.012849335,0.009192524,inf,inf,inf,inf,1,1,1,1,2,0,2,1,4,0,1,1,1,0
829524000,829524000,1036000,41.606704,-86.3556021,-0.4495435,-1.1159291,0.13060303,0.0004888793,0.00011499188,0.0,-0.0033494937,-0.0004022944,0.0009748719,6.680578e-05,-0.00022161186,-0.012446839,-0.016992074,-0.01306307,0.025123822,0.018013576,-1.1104941,-0.0131517695,229.40579,0.1,0.056051087,0.060086425,0.013494807,0.009664464,inf,inf,inf,inf,1,1,1,1,2,0,2,1,4,0,1,1,1,0
829532000,829532000,1036000,41.606704,-86.3556021,-0.44956857,-1.1159499,0.13059078,0.0004888793,0.00011499188,0.0,-0.0034558575,-0.00072400126,0.00045981831,-0.00045786076,-0.00022161186,-0.012446839,-0.016992074,-0.03276195,-0.04372673,-0.047005773,-1.1104412,-0.0131517695,229.40579,0.1,0.05605223,0.06008699,0.014116069,0.010119346,inf,inf,inf,inf,1,1,1,1,2,0,2,1,4,0,1,1,1,0
829540000,829540000,1036000,41.606704,-86.3556021,-0.44959608,-1.1159725,0.13057527,0.0004888793,0.00011499188,0.0,-0.0039080214,-0.0009945476,0.00018149498,-0.00074521283,-0.00022161186,-0.012446839,-0.016992074,-0.03683464,-0.019907454,-0.034557715,-1.1104413,-0.0131517695,229.40579,0.1,0.056053594,0.060087666,0.014713943,0.010559371,inf,inf,inf,inf,1,1,1,1,2,0,2,1,4,0,1,1,1,0
829548000,829548000,1036000,41.606704,-86.3556021,-0.44962436,-1.1159964,0.1305565,0.0004888793,0.00011499188,0.0,-0.0039036854,-0.0013087344,-0.00013916945,-0.0010743346,-0.00022161186,-0.012446839,-0.016992074,-0.021104777,-0.036446895,-0.006054591,-1.1104391,-0.0131517695,229.40579,0.1,0.056055192,0.06008846,0.01529274,0.01098632,inf,inf,inf,inf,1,1,1,1,2,0,2,1,4,0,1,1,1,0
829556000,829556000,1036000,41.606704,-86.3556021,-0.44965598,-1.1160214,0.13054255,0.0004888793,0.00011499188,0.0,-0.0048048873,-0.0015203737,0.0014404311,0.0004973682,-0.00022161186,-0.012446839,-0.016992074,-0.1277571,-0.025399478,0.22689898,-1.1104333,-0.0131517695,229.40579,0.1,0.056057055,0.06008938,0.015854562,0.011401664,inf,inf,inf,inf,1,1,1,1,2,0,2,1,4,0,1,1,1,0
829564000,829564000,1036000,41.606704,-86.3556021,-0.4496914,-1.1160467,0.1305275,0.0004888793,0.00011499188,0.0,-0.0046897754,-0.0015976675,-0.0006836493,-0.001634062,-0.00022161186,-0.012446839,-0.016992074,0.06389946,-0.013358155,-0.31749907,-1.11042,-0.0131517695,229.40579,0.1,0.056059193,0.060090438,0.016401319,0.01180663,inf,inf,inf,inf,1,1,1,1,2,0,2,1,4,0,1,1,1,0
829572000,829572000,1036000,41.606704,-86.3556021,-0.44972184,-1.1160735,0.13050061,0.0004888793,0.00011499188,0.0,-0.0038638527,-0.0020196205,-0.0009867395,-0.0019439667,-0.00022161186,-0.012446839,-0.016992074,0.09414221,-0.028369589,0.03085186,-1.11043,-0.0131517695,229.40579,0.1,0.056061633,0.06009165,0.016934227,0.012202251,inf,inf,inf,inf,1,1,1,1,2,0,2,1,4,0,1,1,1,0
829580000,829580000,1036000,41.606704,-86.3556021,-0.44974703,-1.1161017,0.13047358,0.0004888793,0.00011499188,0.0,-0.0035187604,-0.002370637,-0.00096799136,-0.001931509,-0.00022161186,-0.012446839,-0.016992074,0.017818084,-0.07009708,0.001906354,-1.1103777,-0.0131517695,229.40579,0.1,0.0560644,0.060093015,0.017454367,0.012589409,inf,inf,inf,inf,1,1,1,1,2,0,2,1,4,0,1,1,1,0
829588000,829588000,1036000,41.606704,-86.3556021,-0.44976956,-1.1161324,0.13044491,0.0004888793,0.00011499188,0.0,-0.0030954885,-0.0026046506,-0.0012643095,-0.0022338675,-0.00022161186,-0.012446839,-0.016992074,0.07118577,0.00467646,-0.03447762,-1.1103637,-0.0131517695,229.40579,0.1,0.05606751,0.060085703,0.017963622,0.012968862,inf,inf,inf,inf,1,1,1,1,2,0,2,1,4,0,1,1,1,0
829596000,829596000,1036000,41.606704,-86.3556021,-0.44978797,-1.1161631,0.13041496,0.0004888793,0.00011499188,0.0,-0.0026588195,-0.002779769,-0.0011638429,-0.0021389315,-0.00022161186,-0.012446839,-0.016992074,0.0503053,-0.028565744,0.046108786,-1.1103756,-0.0131517695,229.40579,0.1,0.056070987,0.060087427,0.018463772,0.013341269,inf,inf,inf,inf,1,1,1,1,2,0,2,1,4,0,1,1,1,0
829604000,829604000,1036000,41.606704,-86.3556021,-0.4498033,-1.1161942,0.13038673,0.0004888793,0.00011499188,0.0,-0.002504583,-0.0027754004,-0.0009441227,-0.0019242439,-0.00022161186,-0.012446839,-0.016992074,-0.014600574,0.022304952,0.02992426,-1.1103957,-0.0131517695,229.40579,0.1,0.056074847,0.060089346,0.018952511,0.013707204,inf,inf,inf,inf,1,1,1,1,2,0,2,1,4,0,1,1,1,0
829612000,829612000,1036000,41.606704,-86.3556021,-0.44981936,-1.1162236,0.1303599,0.0004888793,0.00011499188,0.0,-0.0027244021,-0.0026413884,-0.0007218545,-0.001706522,-0.00022161186,-0.012446839,-0.016992074,-0.01630274,0.00876374,0.05358265,-1.1104183,-0.0131517695,229.40579,0.1,0.056079123,0.060091473,0.01943294,0.014067165,inf,inf,inf,inf,1,1,1,1,2,0,2,1,4,0,1,1,1,0
829620000,829620000,1036000,41.606704,-86.3556021,-0.44983575,-1.1162509,0.13034222,0.0004888793,0.00011499188,0.0,-0.0027052634,-0.0024074728,0.0012500663,0.00026132722,-0.00022161186,-0.012446839,-0.016992074,-0.0021567766,0.036455728,0.24942395,-1.1104089,-0.0131517695,229.40579,0.1,0.056083832,0.060093816,0.019904943,0.014421605,inf,inf,inf,inf,1,1,1,1,2,0,2,1,4,0,1,1,1,0
829628000,829628000,1036000,41.606704,-86.3556021,-0.44985116,-1.116276,0.13032492,0.0004888793,0.00011499188,0.0,-0.0024971091,-0.0023209045,-0.00078133063,-0.0017736776,-0.00022161186,-0.012446839,-0.016992074,0.029839966,0.018536726,-0.28594494,-1.1103952,-0.0131517695,229.40579,0.1,0.05608899,0.06009639,0.020369329,0.0147709185,inf,inf,inf,inf,1,1,1,1,2,0,2,1,4,0,1,1,1,0
829636000,829636000,1036000,41.606704,-86.3556021,-0.4498636,-1.1162989,0.13029774,0.0004888793,0.00011499188,0.0,-0.002033227,-0.002043388,-0.00093659863,-0.0019321017,-0.00022161186,-0.012446839,-0.016992074,0.05890968,0.028796768,0.024609203,-1.1104243,-0.0131517695,229.40579,0.1,0.05609463,0.060099203,0.020824768,0.015115467,inf,inf,inf,inf,1,1,1,1,2,0,2,1,4,0,1,1,1,0
829644000,829644000,1036000,41.606704,-86.3556021,-0.44986403,-1.1163213,0.13027921,0.0004888793,0.00011499188,0.0,-0.002179933,-0.0020316076,-0.00069580536,-0.0016781901,-0.00022161186,-0.012446839,-0.016992074,-0.060689516,0.016169624,0.02998759,-1.110446,-0.0131517695,229.40579,0.100028396,0.056061167,0.060073286,0.0014142136,0.001,inf,inf,inf,inf,1,1,1,1,2,0,2,1,4,0,1,1,1,0
829652000,829652000,1036000,41.606704,-86.3556021,-0.4498663,-1.1163416,0.13026308,0.0004888793,0.00011499188,0.0,-0.002541948,-0.001743252,-0.00053464697,-0.0015038835,-0.00022161186,-0.012446839,-0.016992074,-0.05425966,0.035669964,0.007689867,-1.1104852,-0.0131517695,229.40579,0.10004367,0.056061197,0.0600733,0.004213821,0.002983442,inf,inf,inf,inf,1,1,1,1,2,0,2,1,4,0,1,1,1,0
829660000,829660000,1036000,41.606704,-86.3556021,-0.44986904,-1.1163594,0.13024746,0.0004888793,0.00011499188,0.0,-0.002439801,-0.0015167966,-0.00061051873,-0.0015665821,-0.00022161186,-0.012446839,-0.016992074,0.01426365,0.037847776,0.0010467432,-1.1105113,-0.0131517695,229.40579,0.10005815,0.056061234,0.06007332,0.0057994784,0.004111168,inf,inf,inf,inf,1,1,1,1,2,0,2,1,4,0,1,1,1,0
829668000,829668000,1036000,41.606704,-86.3556021,-0.44987062,-1.1163752,0.13023382,0.0004888793,0.00011499188,0.0,-0.002633295,-0.0015100559,-0.0002138333,-0.0011567035,-0.00022161186,-0.012446839,-0.016992074,-0.073985256,-0.009379964,0.052115817,-1.110516,-0.0131517695,229.40579,0.10007039,0.056061298,0.060073353,0.0070452243,0.005000233,inf,inf,inf,inf,1,1,1,1,2,0,2,1,4,0,1,1,1,0
829676000,829676000,1036000,41.606704,-86.3556021,-0.4498752,-1.1163906,0.13022372,0.0004888793,0.00011499188,0.0,-0.00314318,-0.0015542817,0.00014636919,-0.00078329165,-0.00022161186,-0.012446839,-0.016992074,-0.06134559,-0.0117587745,0.05337217,-1.1105288,-0.0131517695,229.40579,0.10007912,0.056061402,0.06007341,0.008109095,0.0057621887,inf,inf,inf,inf,1,1,1,1,2,0,2,1,4,0,1,1,1,0
829684000,829684000,1036000,41.606704,-86.3556021,-0.44988197,-1.1164074,0.1302181,0.0004888793,0.00011499188,0.0,-0.0033686096,-0.0019410995,0.00063612865,-0.00028031145,-0.00022161186,-0.012446839,-0.016992074,-0.034167234,-0.02910908,0.03885844,-1.1105142,-0.0131517695,229.40579,0.10008548,0.056061573,0.060073495,0.009055438,0.006442292,inf,inf,inf,inf,1,1,1,1,2,0,2,1,4,0,1,1,1,0
829692000,829692000,1036000,41.606704,-86.3556021,-0.4498909,-1.1164256,0.13022272,0.0004888793,0.00011499188,0.0,-0.00396955,-0.0021782382,0.0028028006,0.0018995883,-0.00022161186,-0.012446839,-0.016992074,-0.11166405,-0.04290707,0.311003,-1.1105237,-0.0131517695,229.40579,0.10008414,0.05606182,0.06007362,0.009918004,0.007064223,inf,inf,inf,inf,1,1,1,1,2,0,2,1,4,0,1,1,1,0
829700000,829700000,1036000,41.606704,-86.3556021,-0.44990313,-1.1164442,0.13023135,0.0004888793,0.00011499188,0.0,-0.004175413,-0.0019918843,0.001001184,0.00011120325,-0.00022161186,-0.012446839,-0.016992074,-0.021981636,0.057184406,-0.30773044,-1.1105016,-0.0131517695,229.40579,0.10008833,0.056062173,0.060073797,0.010716204,0.007642201,inf,inf,inf,inf,1,1,1,1,2,0,2,1,4,0,1,1,1,0
829708000,829708000,1036000,41.606704,-86.3556021,-0.4499143,-1.1164594,0.13023208,0.0004888793,0.00011499188,0.0,-0.0037839036,-0.001629347,0.0010470422,0.00017114995,-0.00022161186,-0.012446839,-0.016992074,0.07146501,0.038267147,0.06974668,-1.1104814,-0.0131517695,229.40579,0.10012771,0.056062642,0.060065188,0.01146632,0.008185542,inf,inf,inf,inf,1,1,1,1,2,0,2,1,4,0,1,1,1,0
829716000,829716000,1036000,41.606704,-86.3556021,-0.449921,-1.1164734,0.13023697,0.0004888793,0.00011499188,0.0,-0.0034528284,-0.0018778355,0.0015543812,0.000692543,-0.00022161186,-0.012446839,-0.016992074,-0.00067387155,-0.040369477,0.044856157,-1.1104598,-0.0131517695,229.40579,0.10012813,0.056063246,0.06006549,0.012174615,0.00870074,inf,inf,inf,inf,1,1,1,1,2,0,2,1,4,0,1,1,1,0
829724000,829724000,1036000,41.606704,-86.3556021,-0.44992602,-1.1164886,0.13024554,0.0004888793,0.00011499188,0.0,-0.003384266,-0.0019879031,0.0018567187,0.001008875,-0.00022161186,-0.012446839,-0.016992074,-0.0038572864,-0.006117498,0.028774077,-1.1103936,-0.0131517695,229.40579,0.10012558,0.056064013,0.060065873,0.012848596,0.009192516,inf,inf,inf,inf,1,1,1,1,2,0,2,1,4,0,1,1,1,0
829732000,829732000,1036000,41.606704,-86.3556021,-0.44993082,-1.1165041,0.13025555,0.0004888793,0.00011499188,0.0,-0.003530367,-0.0021324195,0.0017973625,0.0009634291,-0.00022161186,-0.012446839,-0.016992074,-0.03381486,-0.025522543,-0.010161723,-1.1104152,-0.0131517695,229.40579,0.10012314,0.05606496,0.060066342,0.013493647,0.009664456,inf,inf,inf,inf,1,1,1,1,2,0,2,1,4,0,1,1,1,0
829740000,829740000,1036000,41.606704,-86.3556021,-0.4499364,-1.1165203,0.13026737,0.0004888793,0.00011499188,0.0,-0.003663466,-0.002196918,0.002673462,0.001853354,-0.00022161186,-0.012446839,-0.016992074,-0.024999429,0.010956874,0.23370974,-1.1104512,-0.0131517695,229.40579,0.10011916,0.0560661,0.06006691,0.014113906,0.010119337,inf,inf,inf,inf,1,1,1,1,2,0,2,1,4,0,1,1,1,0
829748000,829748000,1036000,41.606704,-86.3556021,-0.44994158,-1.1165367,0.13029057,0.0004888793,0.00011499188,0.0,-0.0035075357,-0.002465593,0.0029581466,0.0021517766,-0.00022161186,-0.012446839,-0.016992074,0.018206473,-0.046995353,-0.22695869,-1.1104411,-0.0131517695,229.40579,0.10010502,0.05606746,0.060067583,0.014712034,0.010559357,inf,inf,inf,inf,1,1,1,1,2,0,2,1,4,0,1,1,1,0
829756000,829756000,1036000,41.606704,-86.3556021,-0.44994473,-1.1165544,0.13030232,0.0004888793,0.00011499188,0.0,-0.0032696784,-0.0024752128,0.0013519234,0.0005592025,-0.00022161186,-0.012446839,-0.016992074,0.021395644,0.018108506,-0.04479202,-1.1104171,-0.0131517695,229.40579,0.10010527,0.05606906,0.060068373,0.015290947,0.010986305,inf,inf,inf,inf,1,1,1,1,2,0,2,1,4,0,1,1,1,0
829764000,829764000,1036000,41.606704,-86.3556021,-0.449945,-1.1165708,0.13031341,0.0004888793,0.00011499188,0.0,-0.0028889386,-0.0024202834,0.0021331897,0.0013535154,-0.00022161186,-0.012446839,-0.016992074,0.035421938,0.0027386416,0.08911446,-1.1104188,-0.0131517695,229.40579,0.1000935,0.05607092,0.06006045,0.015852666,0.011401649,inf,inf,inf,inf,1,1,1,1,2,0,2,1,4,0,1,1,1,0
829772000,829772000,1036000,41.606704,-86.3556021,-0.4499427,-1.1165878,0.13032907,0.0004888793,0.00011499188,0.0,-0.0027441448,-0.0027299102,0.0023974306,0.0016307298,-0.00022161186,-0.012446839,-0.016992074,-0.003984499,-0.042873237,0.03401277,-1.1103827,-0.0131517695,229.40579,0.100103736,0.05607306,0.06006151,0.016397739,0.011806615,inf,inf,inf,inf,1,1,1,1,2,0,2,1,4,0,1,1,1,0
829780000,829780000,1036000,41.606704,-86.3556021,-0.44993868,-1.1166059,0.13034756,0.0004888793,0.00011499188,0.0,-0.0024424086,-0.0027568564,0.0026923877,0.001938586,-0.00022161186,-0.012446839,-0.016992074,0.038984813,0.016199853,0.028351257,-1.1103864,-0.0131517695,229.40579,0.10011251,0.056075502,0.060062718,0.01693207,0.012202239,inf,inf,inf,inf,1,1,1,1,2,0,2,1,4,0,1,1,1,0
829788000,829788000,1036000,41.606704,-86.3556021,-0.44993207,-1.1166224,0.13036941,0.0004888793,0.00011499188,0.0,-0.0021651264,-0.0025431518,0.0031260187,0.0023850396,-0.00022161186,-0.012446839,-0.016992074,0.032143682,0.025958156,0.048854325,-1.110352,-0.0131517695,229.40579,0.100110814,0.056078266,0.06006409,0.017452419,0.012589402,inf,inf,inf,inf,1,1,1,1,2,0,2,1,4,0,1,1,1,0
829796000,829796000,1036000,41.606704,-86.3556021,-0.44992334,-1.116638,0.13039319,0.0004888793,0.00011499188,0.0,-0.0020145092,-0.0026856621,0.0030851355,0.0023566624,-0.00022161186,-0.012446839,-0.016992074,-0.018594792,-0.050151553,-0.010585475,-1.1103595,-0.0131517695,229.40579,0.100106105,0.056037303,0.060065627,0.017944869,0.012963471,inf,inf,inf,inf,1,1,1,1,2,0,2,1,4,0,1,1,1,0
829804000,829804000,1036000,41.606704,-86.3556021,-0.44991547,-1.1166573,0.13041884,0.0004888793,0.00011499188,0.0,-0.0023164037,-0.0033793915,0.003915376,0.0031993354,-0.00022161186,-0.012446839,-0.016992074,-0.048289087,-0.061651956,0.2068681,-1.1103489,-0.0131517695,229.40579,0.100105554,0.056040768,0.060067352,0.0184434,0.0133359665,inf,inf,inf,inf,1,1,1,1,2,0,2,1,4,0,1,1,1,0
829812000,829812000,1036000,41.606704,-86.3556021,-0.44990954,-1.1166793,0.13045341,0.0004888793,0.00011499188,0.0,-0.0024674935,-0.0035783714,0.0038369864,0.003133303,-0.00022161186,-0.012446839,-0.016992074,-0.0125579545,-0.01865192,-0.2506003,-1.1103439,-0.0131517695,229.40579,0.10009697,0.05604462,0.06006927,0.018932587,0.01370198,inf,inf,inf,inf,1,1,1,1,2,0,2,1,4,0,1,1,1,0
829820000,829820000,1036000,41.606704,-86.3556021,-0.44990346,-1.1167012,0.13047439,0.0004888793,0.00011499188,0.0,-0.0023853169,-0.0034542908,0.0019324865,0.0012410848,-0.00022161186,-0.012446839,-0.016992074,-0.00036155048,0.0259489,-0.096321166,-1.1103305,-0.0131517695,229.40579,0.10010514,0.05604888,0.060071394,0.019412009,0.014062018,inf,inf,inf,inf,1,1,1,1,2,0,2,1,4,0,1,1,1,0
829828000,829828000,1036000,41.606704,-86.3556021,-0.44989723,-1.1167216,0.13049074,0.0004888793,0.00011499188,0.0,-0.0024636062,-0.003402147,0.0019985316,0.0013194917,-0.00022161186,-0.012446839,-0.016992074,-0.021650173,-0.014835084,0.0056614466,-1.1103654,-0.0131517695,229.40579,0.10012744,0.056053575,0.060064886,0.019883696,0.014416527,inf,inf,inf,inf,1,1,1,1,2,0,2,1,4,0,1,1,1,0
829836000,829836000,1036000,41.606704,-86.3556021,-0.44989085,-1.1167431,0.1305082,0.0004888793,0.00011499188,0.0,-0.002299909,-0.0036887708,0.0020833178,0.0014165556,-0.00022161186,-0.012446839,-0.016992074,0.024818162,-0.014419853,0.0048260503,-1.1104091,-0.0131517695,229.40579,0.10013832,0.056058723,0.06006746,0.020349506,0.014765909,inf,inf,inf,inf,1,1,1,1,2,0,2,1,4,0,1,1,1,0
829844000,829844000,1036000,41.606704,-86.3556021,-0.449883,-1.1167645,0.13052677,0.0004888793,0.00011499188,0.0,-0.0022275047,-0.0036613597,0.0022599497,0.0016053802,-0.00022161186,-0.012446839,-0.016992074,-0.016801875,-0.010052153,0.03573106,-1.1104469,-0.0131517695,229.40579,0.10014473,0.056064352,0.060070273,0.02080591,0.015110519,inf,inf,inf,inf,1,1,1,1,2,0,2,1,4,0,1,1,1,0
829852000,829852000,1036000,41.606704,-86.3556021,-0.44987622,-1.1167858,0.13053654,0.0004888793,0.00011499188,0.0,-0.0023482013,-0.0039368067,0.0026477142,0.0019815573,-0.00022161186,-0.012446839,-0.016992074,-0.020250855,-0.022933885,0.06042228,-1.1104647,-0.0131517695,229.40579,0.1,0.056031007,0.060053226,0.0014142136,0.001,inf,inf,inf,inf,1,1,1,1,2,0,2,1,4,0,1,1,1,0
829860000,829860000,1036000,41.606704,-86.3556021,-0.4498712,-1.1168075,0.13055457,0.0004888793,0.00011499188,0.0,-0.0027011747,-0.0040594214,0.0044518197,0.0037745903,-0.00022161186,-0.012446839,-0.016992074,-0.05576326,-0.026929637,0.2516498,-1.1104666,-0.0131517695,229.40579,0.1,0.056031037,0.060053237,0.004213694,0.002983439,inf,inf,inf,inf,1,1,1,1,2,0,2,1,4,0,1,1,1,0
829868000,829868000,1036000,41.606704,-86.3556021,-0.44986722,-1.1168294,0.13057162,0.0004888793,0.00011499188,0.0,-0.0024786813,-0.003938121,0.0021345736,0.001446777,-0.00022161186,-0.012446839,-0.016992074,0.042829037,0.0369259,-0.34977686,-1.1105076,-0.0131517695,229.40579,0.1,0.05603107,0.060053255,0.005799222,0.0041111642,inf,inf,inf,inf,1,1,1,1,2,0,2,1,4,0,1,1,1,0
829876000,829876000,1036000,41.606704,-86.3556021,-0.44985956,-1.1168486,0.13057587,0.0004888793,0.00011499188,0.0,-0.0018202286,-0.0036478247,0.0019053112,0.0012074426,-0.00022161186,-0.012446839,-0.016992074,0.08446529,0.024560997,0.055002913,-1.1105306,-0.0131517695,229.40579,0.1,0.056031134,0.06005329,0.0070448583,0.0050002276,inf,inf,inf,inf,1,1,1,1,2,0,2,1,4,0,1,1,1,0
829884000,829884000,1036000,41.606704,-86.3556021,-0.44984737,-1.116866,0.13058217,0.0004888793,0.00011499188,0.0,-0.0014454898,-0.003530456,0.0021565934,0.001449821,-0.00022161186,-0.012446839,-0.016992074,0.01931342,0.017008709,0.019622901,-1.1105076,-0.0131517695,229.40579,0.1,0.05603124,0.06004451,0.008108434,0.005762178,inf,inf,inf,inf,1,1,1,1,2,0,2,1,4,0,1,1,1,0
829892000,829892000,1036000,41.606704,-86.3556021,-0.449834,-1.1168828,0.13058846,0.0004888793,0.00011499188,0.0,-0.00145267,-0.0037230153,0.0021519288,0.0014367041,-0.00022161186,-0.012446839,-0.016992074,-0.016794406,-0.042028885,0.02291699,-1.1104597,-0.0131517695,229.40579,0.1,0.05603141,0.060044594,0.009054912,0.0064422805,inf,inf,inf,inf,1,1,1,1,2,0,2,1,4,0,1,1,1,0
829900000,829900000,1036000,41.606704,-86.3556021,-0.44982272,-1.1169006,0.13059443,0.0004888793,0.00011499188,0.0,-0.0019010839,-0.0037685938,0.0020439003,0.0013206654,-0.00022161186,-0.012446839,-0.016992074,-0.06237806,0.010612221,-0.0122721,-1.110415,-0.0131517695,229.40579,0.1,0.05603166,0.06004472,0.009918551,0.007064213,inf,inf,inf,inf,1,1,1,1,2,0,2,1,4,0,1,1,1,0
829908000,829908000,1036000,41.606704,-86.3556021,-0.44981274,-1.1169177,0.13059804,0.0004888793,0.00011499188,0.0,-0.0016048012,-0.00376681,0.0016670625,0.0009362501,-0.00022161186,-0.012446839,-0.016992074,0.06426636,-0.011785343,-0.03929908,-1.1103629,-0.0131517695,229.40579,0.1,0.05603201,0.060044896,0.010717859,0.0076421914,inf,inf,inf,inf,1,1,1,1,2,0,2,1,4,0,1,1,1,0
829916000,829916000,1036000,41.606704,-86.3556021,-0.4497989,-1.1169355,0.13060002,0.0004888793,0.00011499188,0.0,-0.0010685914,-0.0039526657,0.0018507923,0.0011128262,-0.00022161186,-0.012446839,-0.016992074,0.05297798,-0.016227415,0.06468867,-1.1103454,-0.0131517695,229.40579,0.1,0.05603248,0.060045134,0.0114670005,0.00818553,inf,inf,inf,inf,1,1,1,1,2,0,2,1,4,0,1,1,1,0
829924000,829924000,1036000,41.606704,-86.3556021,-0.44978136,-1.1169537,0.13061096,0.0004888793,0.00011499188,0.0,-0.00066394283,-0.004032532,0.003800296,0.0030555907,-0.00022161186,-0.012446839,-0.016992074,0.027857542,-0.012653803,0.23937126,-1.1103387,-0.0131517695,229.40579,0.1,0.056033086,0.060045436,0.012175199,0.008700723,inf,inf,inf,inf,1,1,1,1,2,0,2,1,4,0,1,1,1,0
829932000,829932000,1036000,41.606704,-86.3556021,-0.44976225,-1.1169726,0.1306197,0.0004888793,0.00011499188,0.0,-0.0005309631,-0.0041747843,0.0011603492,0.0004093437,-0.00022161186,-0.012446839,-0.016992074,0.020346602,-0.0086700665,-0.38804677,-1.1103454,-0.0131517695,229.40579,0.1,0.056033853,0.06004582,0.012849094,0.0091925,inf,inf,inf,inf,1,1,1,1,2,0,2,1,4,0,1,1,1,0
829940000,829940000,1036000,41.606704,-86.3556021,-0.44974113,-1.1169889,0.1306128,0.0004888793,0.00011499188,0.0,-0.00012415464,-0.0035102307,0.00060618966,-0.0001506537,-0.00022161186,-0.012446839,-0.016992074,0.052652523,0.09252155,0.03457808,-1.1103084,-0.0131517695,229.40579,0.1,0.0560348,0.06004629,0.013493073,0.0096644405,inf,inf,inf,inf,1,1,1,1,2,0,2,1,4,0,1,1,1,0
829948000,829948000,1036000,41.606704,-86.3556021,-0.44971794,-1.1170003,0.13060807,0.0004888793,0.00011499188,0.0,-0.00010904674,-0.0030959696,0.0012151239,0.00045322918,-0.00022161186,-0.012446839,-0.016992074,-0.03225344,0.04717297,0.06292195,-1.1102897,-0.0131517695,229.40579,0.1,0.05603594,0.06003802,0.0141147515,0.010119319,inf,inf,inf,inf,1,1,1,1,2,0,2,1,4,0,1,1,1,0
829956000,829956000,1036000,41.606704,-86.3556021,-0.44969603,-1.1170089,0.13060527,0.0004888793,0.00011499188,0.0,-0.00019305073,-0.0029232018,0.0012125863,0.00044607098,-0.00022161186,-0.012446839,-0.016992074,0.0061663804,0.017763197,0.0063375863,-1.1102941,-0.0131517695,229.40579,0.1,0.056037303,0.060038693,0.014713279,0.010559342,inf,inf,inf,inf,1,1,1,1,2,0,2,1,4,0,1,1,1,0
829964000,829964000,1036000,41.606704,-86.3556021,-0.4496723,-1.1170157,0.1306037,0.0004888793,0.00011499188,0.0,0.00033701843,-0.0027413156,0.0016342283,0.00086351344,-0.00022161186,-0.012446839,-0.016992074,0.06621666,0.011547472,0.07493601,-1.1103255,-0.0131517695,229.40579,0.1,0.0560389,0.060039487,0.015292254,0.010986294,inf,inf,inf,inf,1,1,1,1,2,0,2,1,4,0,1,1,1,0
829972000,829972000,1036000,41.606704,-86.3556021,-0.449646,-1.1170222,0.1306044,0.0004888793,0.00011499188,0.0,0.00045617236,-0.0029125814,0.0017221913,0.0009476885,-0.00022161186,-0.012446839,-0.016992074,0.0037222176,-0.033133,0.011275459,-1.1103525,-0.0131517695,229.40579,0.1,0.05604076,0.060040407,0.015854321,0.011401638,inf,inf,inf,inf,1,1,1,1,2,0,2,1,4,0,1,1,1,0
829980000,829980000,1036000,41.606704,-86.3556021,-0.44961843,-1.1170304,0.13060574,0.0004888793,0.00011499188,0.0,0.00077164156,-0.0032865503,0.001872096,0.0010942066,-0.00022161186,-0.012446839,-0.016992074,0.045132924,-0.05445922,0.030314485,-1.1103343,-0.0131517695,229.40579,0.1,0.056042906,0.06004147,0.016401142,0.011806605,inf,inf,inf,inf,1,1,1,1,2,0,2,1,4,0,1,1,1,0
829988000,829988000,1036000,41.606704,-86.3556021,-0.44958845,-1.1170421,0.13060927,0.0004888793,0.00011499188,0.0,0.0009841258,-0.0037547941,0.0023663724,0.0015854887,-0.00022161186,-0.012446839,-0.016992074,-0.0014002218,-0.04916327,0.09232566,-1.1103278,-0.0131517695,229.40579,0.1,0.056045346,0.06004268,0.01693436,0.012202229,inf,inf,inf,inf,1,1,1,1,2,0,2,1,4,0,1,1,1,0
829996000,829996000,1036000,41.606704,-86.3556021,-0.44955978,-1.117056,0.13062425,0.0004888793,0.00011499188,0.0,0.0006026639,-0.0039734654,0.0046402337,0.0038567386,-0.00022161186,-0.012446839,-0.016992074,-0.05292668,-0.021690661,0.28765473,-1.1103214,-0.0131517695,229.40579,0.1,0.05604811,0.06004405,0.017454593,0.0125893885,inf,inf,inf,inf,1,1,1,1,2,0,2,1,4,0,1,1,1,0
830004000,830004000,1036000,41.606704,-86.3556021,-0.44953266,-1.1170704,0.13063984,0.0004888793,0.00011499188,0.0,0.0006287896,-0.0038492237,0.002256464,0.0014703837,-0.00022161186,-0.012446839,-0.016992074,0.0038840496,0.023420263,-0.383921,-1.110317,-0.0131517695,229.40579,0.1,0.05600722,0.060036752,0.017945789,0.012963458,inf,inf,inf,inf,1,1,1,1,2,0,2,1,4,0,1,1,1,0
830012000,830012000,1036000,41.606704,-86.3556021,-0.44950587,-1.1170833,0.13064018,0.0004888793,0.00011499188,0.0,0.0006304048,-0.0037360433,0.0015890356,0.00080074766,-0.00022161186,-0.012446839,-0.016992074,0.0123094795,0.0038328278,0.01926993,-1.1103096,-0.0131517695,229.40579,0.1,0.056010686,0.060038477,0.018446848,0.0133359535,inf,inf,inf,inf,1,1,1,1,2,0,2,1,4,0,1,1,1,0
830020000,830020000,1036000,41.606704,-86.3556021,-0.4494776,-1.1170967,0.13064173,0.0004888793,0.00011499188,0.0,0.00093276275,-0.0040319683,0.0020957924,0.0013056645,-0.00022161186,-0.012446839,-0.016992074,0.018720927,-0.043130253,0.054277416,-1.1102998,-0.0131517695,229.40579,0.1,0.05601454,0.060040396,0.018936466,0.013701972,inf,inf,inf,inf,1,1,1,1,2,0,2,1,4,0,1,1,1,0
830028000,830028000,1036000,41.606704,-86.3556021,-0.44944853,-1.1171119,0.13064581,0.0004888793,0.00011499188,0.0,0.0009823627,-0.0042943996,0.0023015472,0.0015099382,-0.00022161186,-0.012446839,-0.016992074,0.0071841357,-0.03538235,0.038784865,-1.1103014,-0.0131517695,229.40579,0.1,0.056018807,0.06004252,0.019416122,0.014062013,inf,inf,inf,inf,1,1,1,1,2,0,2,1,4,0,1,1,1,0
830036000,830036000,1036000,41.606704,-86.3556021,-0.44941896,-1.117129,0.13065186,0.0004888793,0.00011499188,0.0,0.0011004447,-0.0045765755,0.0024805998,0.0016878594,-0.00022161186,-0.012446839,-0.016992074,0.011705134,-0.038322847,0.013618667,-1.1103055,-0.0131517695,229.40579,0.1,0.05602351,0.060044862,0.019888079,0.014416523,inf,inf,inf,inf,1,1,1,1,2,0,2,1,4,0,1,1,1,0
830044000,830044000,1036000,41.606704,-86.3556021,-0.44938833,-1.1171476,0.13065779,0.0004888793,0.00011499188,0.0,0.0013645269,-0.0046639624,0.0023361987,0.0015426673,-0.00022161186,-0.012446839,-0.016992074,0.03847453,0.004712648,-0.006840627,-1.1103392,-0.0131517695,229.40579,0.1,0.05602866,0.060047437,0.02035197,0.014765908,inf,inf,inf,inf,1,1,1,1,2,0,2,1,4,0,1,1,1,0
830052000,830052000,1036000,41.606704,-86.3556021,-0.4493555,-1.1171662,0.130664,0.0004888793,0.00011499188,0.0,0.0016703504,-0.0046833768,0.0023964539,0.0016028218,-0.00022161186,-0.012446839,-0.016992074,0.0339042,-0.0055603166,0.009671722,-1.1103461,-0.0131517695,229.40579,0.1,0.056034293,0.060041413,0.02080903,0.015110513,inf,inf,inf,inf,1,1,1,1,2,0,2,1,4,0,1,1,1,0
830060000,830060000,1036000,41.606704,-86.3556021,-0.44932732,-1.1171836,0.13066813,0.0004888793,0.00011499188,0.0,0.0017202774,-0.00477651,0.0025036803,0.0017051485,-0.00022161186,-0.012446839,-0.016992074,-0.012882821,-0.021081993,0.03958487,-1.110332,-0.0131517695,229.40579,0.1,0.056000922,0.060024362,0.0014142136,0.001,inf,inf,inf,inf,1,1,1,1,2,0,2,1,4,0,1,1,1,0
830068000,830068000,1036000,41.606704,-86.3556021,-0.44930142,-1.1172024,0.13067934,0.0004888793,0.00011499188,0.0,0.0014015286,-0.005191264,0.0041342205,0.003331221,-0.00022161186,-0.012446839,-0.016992074,-0.021069337,-0.06699896,0.2229688,-1.1103326,-0.0131517695,229.40579,0.1,0.05600095,0.060024373,0.0042136456,0.0029834388,inf,inf,inf,inf,1,1,1,1,2,0,2,1,4,0,1,1,1,0
830076000,830076000,1036000,41.606704,-86.3556021,-0.44927588,-1.1172224,0.1306904,0.0004888793,0.00011499188,0.0,0.00180658,-0.004992927,0.0021641937,0.0013571486,-0.00022161186,-0.012446839,-0.016992074,0.072359934,0.048693713,-0.30318558,-1.1103284,-0.0131517695,229.40579,0.1,0.056000985,0.06002439,0.005798637,0.0041111624,inf,inf,inf,inf,1,1,1,1,2,0,2,1,4,0,1,1,1,0
830084000,830084000,1036000,41.606704,-86.3556021,-0.44924754,-1.1172398,0.13069135,0.0004888793,0.00011499188,0.0,0.0021112487,-0.0046940576,0.0021709572,0.0013602783,-0.00022161186,-0.012446839,-0.016992074,0.025087351,0.037562385,0.0829845,-1.1103493,-0.0131517695,229.40579,0.1,0.05600105,0.060024425,0.0070448774,0.0050002243,inf,inf,inf,inf,1,1,1,1,2,0,2,1,4,0,1,1,1,0
830092000,830092000,1036000,41.606704,-86.3556021,-0.44921967,-1.117254,0.13069476,0.0004888793,0.00011499188,0.0,0.001857276,-0.004309078,0.0023545946,0.0015406844,-0.00022161186,-0.012446839,-0.016992074,-0.03962004,0.038626183,0.004690077,-1.1104083,-0.0131517695,229.40579,0.1,0.056001157,0.06002448,0.008108999,0.0057621766,inf,inf,inf,inf,1,1,1,1,2,0,2,1,4,0,1,1,1,0
830100000,830100000,1036000,41.606704,-86.3556021,-0.44919494,-1.1172658,0.13069889,0.0004888793,0.00011499188,0.0,0.0015685663,-0.0041326797,0.002416022,0.0015992728,-0.00022161186,-0.012446839,-0.016992074,-0.021206722,0.019631883,0.009234931,-1.1104041,-0.0131517695,229.40579,0.1,0.056001324,0.06002457,0.009055247,0.006442279,inf,inf,inf,inf,1,1,1,1,2,0,2,1,4,0,1,1,1,0
830108000,830108000,1036000,41.606704,-86.3556021,-0.44917223,-1.1172763,0.13070206,0.0004888793,0.00011499188,0.0,0.0014354492,-0.00409094,0.0021234457,0.0013042404,-0.00022161186,-0.012446839,-0.016992074,-0.018341998,-0.002050825,-0.029501567,-1.1103781,-0.0131517695,229.40579,0.1,0.056001574,0.060024697,0.009917873,0.0070642116,inf,inf,inf,inf,1,1,1,1,2,0,2,1,4,0,1,1,1,0
830116000,830116000,1036000,41.606704,-86.3556021,-0.449151,-1.1172867,0.13070586,0.0004888793,0.00011499188,0.0,0.0013952284,-0.0042058434,0.0028409285,0.0020203465,-0.00022161186,-0.012446839,-0.016992074,0.0066739228,-0.03229134,0.21313682,-1.110373,-0.0131517695,229.40579,0.1,0.056001924,0.060016047,0.010717037,0.0076421886,inf,inf,inf,inf,1,1,1,1,2,0,2,1,4,0,1,1,1,0
830124000,830124000,1036000,41.606704,-86.3556021,-0.44913185,-1.1172991,0.13071889,0.0004888793,0.00011499188,0.0,0.0010171547,-0.0045162775,0.003017222,0.0021956018,-0.00022161186,-0.012446839,-0.016992074,-0.04714674,-0.02107839,-0.20373803,-1.1103802,-0.0131517695,229.40579,0.1,0.056002393,0.060016286,0.0114661995,0.008185528,inf,inf,inf,inf,1,1,1,1,2,0,2,1,4,0,1,1,1,0
830132000,830132000,1036000,41.606704,-86.3556021,-0.4491138,-1.1173122,0.13071927,0.0004888793,0.00011499188,0.0,0.0013387466,-0.0045389044,0.0011230266,0.00030069792,-0.00022161186,-0.012446839,-0.016992074,0.05863673,-0.010181938,-0.09615073,-1.1104053,-0.0131517695,229.40579,0.1,0.056003,0.060016587,0.012174375,0.00870072,inf,inf,inf,inf,1,1,1,1,2,0,2,1,4,0,1,1,1,0
830140000,830140000,1036000,41.606704,-86.3556021,-0.44909197,-1.1173248,0.13071688,0.0004888793,0.00011499188,0.0,0.002040863,-0.0044934335,0.0017685851,0.0009458765,-0.00022161186,-0.012446839,-0.016992074,0.09296569,-0.0065241205,0.08857336,-1.1103989,-0.0131517695,229.40579,0.1,0.056003768,0.060016967,0.012848411,0.009192499,inf,inf,inf,inf,1,1,1,1,2,0,2,1,4,0,1,1,1,0
830148000,830148000,1036000,41.606704,-86.3556021,-0.44906825,-1.1173388,0.13071582,0.0004888793,0.00011499188,0.0,0.0018685035,-0.0048724264,0.0013423262,0.00051956525,-0.00022161186,-0.012446839,-0.016992074,-0.037034046,-0.046835702,-0.06647507,-1.1103612,-0.0131517695,229.40579,0.1,0.056004714,0.060017437,0.013492505,0.009664439,inf,inf,inf,inf,1,1,1,1,2,0,2,1,4,0,1,1,1,0
830156000,830156000,1036000,41.606704,-86.3556021,-0.44904572,-1.1173538,0.1307122,0.0004888793,0.00011499188,0.0,0.0019483244,-0.0047588516,0.0012555582,0.00043306357,-0.00022161186,-0.012446839,-0.016992074,0.015655627,0.027302751,0.013268489,-1.1103745,-0.0131517695,229.40579,0.1,0.056005858,0.060018003,0.014113936,0.010119317,inf,inf,inf,inf,1,1,1,1,2,0,2,1,4,0,1,1,1,0
830164000,830164000,1036000,41.606704,-86.3556021,-0.44902444,-1.1173677,0.13070911,0.0004888793,0.00011499188,0.0,0.0017114317,-0.004769845,0.001371626,0.0005497079,-0.00022161186,-0.012446839,-0.016992074,-0.017954744,-0.024331588,0.023935856,-1.1103771,-0.0131517695,229.40579,0.1,0.056007218,0.06001868,0.014712291,0.01055934,inf,inf,inf,inf,1,1,1,1,2,0,2,1,4,0,1,1,1,0
830172000,830172000,1036000,41.606704,-86.3556021,-0.44900358,-1.1173826,0.13070755,0.0004888793,0.00011499188,0.0,0.0018978718,-0.004919586,0.0016381112,0.0008171308,-0.00022161186,-0.012446839,-0.016992074,0.01972982,-0.0046706013,0.05574704,-1.110399,-0.0131517695,229.40579,0.1,0.05600882,0.06001065,0.015291286,0.010986289,inf,inf,inf,inf,1,1,1,1,2,0,2,1,4,0,1,1,1,0
830180000,830180000,1036000,41.606704,-86.3556021,-0.44898355,-1.1173972,0.1307126,0.0004888793,0.00011499188,0.0,0.0015987164,-0.0047741467,0.003292964,0.0024732132,-0.00022161186,-0.012446839,-0.016992074,-0.045116175,0.012215341,0.305877,-1.1104089,-0.0131517695,229.40579,0.1,0.056010682,0.060011573,0.015853276,0.011401636,inf,inf,inf,inf,1,1,1,1,2,0,2,1,4,0,1,1,1,0
830188000,830188000,1036000,41.606704,-86.3556021,-0.44896734,-1.1174097,0.13073105,0.0004888793,0.00011499188,0.0,0.0011422499,-0.004423523,0.0036784403,0.0028602027,-0.00022161186,-0.012446839,-0.016992074,-0.041885793,0.05804063,-0.16852659,-1.1103824,-0.0131517695,229.40579,0.1,0.056012824,0.060012635,0.016400227,0.011806603,inf,inf,inf,inf,1,1,1,1,2,0,2,1,4,0,1,1,1,0
830196000,830196000,1036000,41.606704,-86.3556021,-0.44895184,-1.1174191,0.13074036,0.0004888793,0.00011499188,0.0,0.0015438275,-0.004085187,0.002270624,0.0014541752,-0.00022161186,-0.012446839,-0.016992074,0.07112242,0.04051028,-0.061490636,-1.1103697,-0.0131517695,229.40579,0.1,0.056015268,0.06001384,0.016932562,0.012202225,inf,inf,inf,inf,1,1,1,1,2,0,2,1,4,0,1,1,1,0
830204000,830204000,1036000,41.606704,-86.3556021,-0.44893417,-1.1174247,0.13074677,0.0004888793,0.00011499188,0.0,0.0015989695,-0.0035559896,0.0025803973,0.0017660055,-0.00022161186,-0.012446839,-0.016992074,-0.01938621,0.048440404,0.06493919,-1.1103705,-0.0131517695,229.40579,0.1,0.056018036,0.060015216,0.01745278,0.012589381,inf,inf,inf,inf,1,1,1,1,2,0,2,1,4,0,1,1,1,0
830212000,830212000,1036000,41.606704,-86.3556021,-0.4489187,-1.1174293,0.1307569,0.0004888793,0.00011499188,0.0,0.0011574475,-0.0037303881,0.0029558702,0.002143929,-0.00022161186,-0.012446839,-0.016992074,-0.049800757,-0.03177743,0.034349907,-1.1104072,-0.0131517695,229.40579,0.1,0.055977218,0.060016755,0.017947227,0.012963451,inf,inf,inf,inf,1,1,1,1,2,0,2,1,4,0,1,1,1,0
830220000,830220000,1036000,41.606704,-86.3556021,-0.44890675,-1.1174344,0.13076961,0.0004888793,0.00011499188,0.0,0.0008064344,-0.0036733672,0.0033094776,0.0025002365,-0.00022161186,-0.012446839,-0.016992074,-0.03807186,0.0136183575,0.06649916,-1.1104225,-0.0131517695,229.40579,0.1,0.055980686,0.06001848,0.018445468,0.013335948,inf,inf,inf,inf,1,1,1,1,2,0,2,1,4,0,1,1,1,0
830228000,830228000,1036000,41.606704,-86.3556021,-0.44889712,-1.117438,0.13078594,0.0004888793,0.00011499188,0.0,0.0007158572,-0.00341011,0.0037185054,0.0029122068,-0.00022161186,-0.012446839,-0.016992074,0.007747853,0.03750676,0.051761914,-1.110447,-0.0131517695,229.40579,0.1,0.05598454,0.0600204,0.01893499,0.0137019595,inf,inf,inf,inf,1,1,1,1,2,0,2,1,4,0,1,1,1,0
830236000,830236000,1036000,41.606704,-86.3556021,-0.44888818,-1.1174402,0.13081318,0.0004888793,0.00011499188,0.0,0.0005457985,-0.0034276315,0.005832378,0.005029788,-0.00022161186,-0.012446839,-0.016992074,-0.045798093,-0.011604531,0.26349065,-1.1104108,-0.0131517695,229.40579,0.1,0.05598881,0.0600137,0.019415285,0.014061997,inf,inf,inf,inf,1,1,1,1,2,0,2,1,4,0,1,1,1,0
830244000,830244000,1036000,41.606704,-86.3556021,-0.44888365,-1.1174421,0.13084038,0.0004888793,0.00011499188,0.0,-0.00018217173,-0.003280026,0.0034158211,0.0026171478,-0.00022161186,-0.012446839,-0.016992074,-0.082636155,0.021122998,-0.35995808,-1.1103812,-0.0131517695,229.40579,0.1,0.055993512,0.060016043,0.01988714,0.0144165065,inf,inf,inf,inf,1,1,1,1,2,0,2,1,4,0,1,1,1,0
830252000,830252000,1036000,41.606704,-86.3556021,-0.4488816,-1.1174425,0.13085467,0.0004888793,0.00011499188,0.0,0.00011339299,-0.0030772868,0.0031836177,0.0023890638,-0.00022161186,-0.012446839,-0.016992074,0.07281894,0.02557908,0.07233669,-1.1103671,-0.0131517695,229.40579,0.1,0.055998668,0.060018618,0.02035119,0.0147658875,inf,inf,inf,inf,1,1,1,1,2,0,2,1,4,0,1,1,1,0
830260000,830260000,1036000,41.606704,-86.3556021,-0.4488762,-1.1174408,0.13087566,0.0004888793,0.00011499188,0.0,0.0005172483,-0.0028047808,0.004482756,0.0036925178,-0.00022161186,-0.012446839,-0.016992074,0.033285044,0.030328533,0.12962234,-1.1103342,-0.0131517695,229.40579,0.1,0.0560043,0.060021434,0.02080671,0.015110494,inf,inf,inf,inf,1,1,1,1,2,0,2,1,4,0,1,1,1,0
830268000,830268000,1036000,41.606704,-86.3556021,-0.44887242,-1.1174327,0.13088928,0.0004888793,0.00011499188,0.0,0.00017575444,-0.0026777633,0.0040301676,0.0032226767,-0.00022161186,-0.012446839,-0.016992074,-0.047510378,-0.0021991534,-0.060794003,-1.1103373,-0.0131517695,229.40579,0.1,0.05597091,0.060004372,0.0014142136,0.001,inf,inf,inf,inf,1,1,1,1,2,0,2,1,4,0,1,1,1,0
830276000,830276000,1036000,41.606704,-86.3556021,-0.44887093,-1.1174241,0.1308987,0.0004888793,0.00011499188,0.0,0.00013433106,-0.0027201974,0.0036616311,0.002837623,-0.00022161186,-0.012446839,-0.016992074,0.016669508,-0.010024905,-0.010191525,-1.1103451,-0.0131517695,229.40579,0.1,0.05597094,0.060004387,0.0042140526,0.0029834406,inf,inf,inf,inf,1,1,1,1,2,0,2,1,4,0,1,1,1,0
830284000,830284000,1036000,41.606704,-86.3556021,-0.4488697,-1.1174139,0.13090506,0.0004888793,0.00011499188,0.0,6.900084e-05,-0.0022783729,0.0031963973,0.002356594,-0.00022161186,-0.012446839,-0.016992074,-0.017338702,0.071354575,-0.05785475,-1.1103299,-0.0131517695,229.40579,0.1,0.055970978,0.060004406,0.005799731,0.004111168,inf,inf,inf,inf,1,1,1,1,2,0,2,1,4,0,1,1,1,0
830292000,830292000,1036000,41.606704,-86.3556021,-0.44887102,-1.1173991,0.13090646,0.0004888793,0.00011499188,0.0,-0.00038987753,-0.0018328325,0.00252596,0.0016710793,-0.00022161186,-0.012446839,-0.016992074,-0.05811288,0.029942136,-0.073372446,-1.1103507,-0.0131517695,229.40579,0.1,0.05597104,0.05999562,0.0070452923,0.005000228,inf,inf,inf,inf,1,1,1,1,2,0,2,1,4,0,1,1,1,0
830300000,830300000,1036000,41.606704,-86.3556021,-0.44887623,-1.1173834,0.13090968,0.0004888793,0.00011499188,0.0,-0.0008982925,-0.0021100624,0.003912761,0.003043494,-0.00022161186,-0.012446839,-0.016992074,-0.077526845,-0.067467354,0.23219635,-1.1103486,-0.0131517695,229.40579,0.1,0.055971146,0.059995677,0.008109092,0.005762181,inf,inf,inf,inf,1,1,1,1,2,0,2,1,4,0,1,1,1,0
830308000,830308000,1036000,41.606704,-86.3556021,-0.44888562,-1.1173702,0.13091,0.0004888793,0.00011499188,0.0,-0.0011278398,-0.0024218378,0.0013527109,0.000469735,-0.00022161186,-0.012446839,-0.016992074,0.014832425,-0.02821626,-0.38897714,-1.1103617,-0.0131517695,229.40579,0.1,0.055971313,0.059995767,0.00905541,0.006442285,inf,inf,inf,inf,1,1,1,1,2,0,2,1,4,0,1,1,1,0
830316000,830316000,1036000,41.606704,-86.3556021,-0.44889447,-1.1173579,0.13089593,0.0004888793,0.00011499188,0.0,-0.0008546799,-0.0023787115,0.0011394178,0.00024339567,-0.00022161186,-0.012446839,-0.016992074,0.037538845,0.0045524905,0.09441741,-1.1103342,-0.0131517695,229.40579,0.1,0.055971563,0.059995893,0.00991715,0.0070642177,inf,inf,inf,inf,1,1,1,1,2,0,2,1,4,0,1,1,1,0
830324000,830324000,1036000,41.606704,-86.3556021,-0.4489015,-1.1173441,0.1308867,0.0004888793,0.00011499188,0.0,-0.00061071804,-0.0021346335,0.002063542,0.0011551228,-0.00022161186,-0.012446839,-0.016992074,0.03504194,0.034158487,0.0950088,-1.1102898,-0.0131517695,229.40579,0.1,0.055971917,0.05999607,0.01071763,0.007642197,inf,inf,inf,inf,1,1,1,1,2,0,2,1,4,0,1,1,1,0
830332000,830332000,1036000,41.606704,-86.3556021,-0.44890618,-1.1173266,0.13087885,0.0004888793,0.00011499188,0.0,-0.0002453614,-0.0015451674,0.0015475205,0.00062733924,-0.00022161186,-0.012446839,-0.016992074,0.04008702,0.059603333,-0.0792463,-1.1102887,-0.0131517695,229.40579,0.1,0.055972386,0.059996307,0.011466895,0.0081855375,inf,inf,inf,inf,1,1,1,1,2,0,2,1,4,0,1,1,1,0
830340000,830340000,1036000,41.606704,-86.3556021,-0.44890934,-1.117306,0.13086507,0.0004888793,0.00011499188,0.0,-9.82549e-05,-0.0014173734,0.0007839471,-0.00014737553,-0.00022161186,-0.012446839,-0.016992074,0.03220786,0.012438915,-0.07428142,-1.1103019,-0.0131517695,229.40579,0.1,0.055972993,0.05999661,0.0121744005,0.008700731,inf,inf,inf,inf,1,1,1,1,2,0,2,1,4,0,1,1,1,0
830348000,830348000,1036000,41.606704,-86.3556021,-0.44891068,-1.1172835,0.13084693,0.0004888793,0.00011499188,0.0,0.00017858467,-0.0010912132,0.00056984776,-0.0003719782,-0.00022161186,-0.012446839,-0.016992074,0.026009291,0.040171724,0.010066602,-1.110295,-0.0131517695,229.40579,0.1,0.05597376,0.05999699,0.012848753,0.0091925105,inf,inf,inf,inf,1,1,1,1,2,0,2,1,4,0,1,1,1,0
830356000,830356000,1036000,41.606704,-86.3556021,-0.44891223,-1.1172571,0.13082759,0.0004888793,0.00011499188,0.0,-0.00011468202,-0.00059006404,0.00048312946,-0.00046890683,-0.00022161186,-0.012446839,-0.016992074,-0.04665795,0.04730639,-0.005884159,-1.1102967,-0.0131517695,229.40579,0.1,0.055974707,0.059988648,0.013494095,0.00966445,inf,inf,inf,inf,1,1,1,1,2,0,2,1,4,0,1,1,1,0
830364000,830364000,1036000,41.606704,-86.3556021,-0.44891664,-1.1172274,0.13080756,0.0004888793,0.00011499188,0.0,-0.00034782907,-0.00022737723,0.00044516684,-0.0005164275,-0.00022161186,-0.012446839,-0.016992074,-0.0046603745,0.054565106,0.0053438656,-1.1103104,-0.0131517695,229.40579,0.1,0.05597585,0.059989214,0.014114563,0.010119331,inf,inf,inf,inf,1,1,1,1,2,0,2,1,4,0,1,1,1,0
830372000,830372000,1036000,41.606704,-86.3556021,-0.44892147,-1.1171936,0.1307916,0.0004888793,0.00011499188,0.0,-0.0003799297,0.00032778404,0.0015077911,0.00053727673,-0.00022161186,-0.012446839,-0.016992074,-0.031221064,0.051128693,0.1403726,-1.1103101,-0.0131517695,229.40579,0.1,0.055977214,0.05998989,0.014713417,0.010559357,inf,inf,inf,inf,1,1,1,1,2,0,2,1,4,0,1,1,1,0
830380000,830380000,1036000,41.606704,-86.3556021,-0.44892728,-1.1171556,0.1307698,0.0004888793,0.00011499188,0.0,-0.00022227791,0.00089162856,-0.0010841144,-0.0020629258,-0.00022161186,-0.012446839,-0.016992074,0.07511371,0.08227629,-0.33476022,-1.1102962,-0.0131517695,229.40579,0.1,0.055978812,0.05999068,0.015291549,0.010986303,inf,inf,inf,inf,1,1,1,1,2,0,2,1,4,0,1,1,1,0
830388000,830388000,1036000,41.606704,-86.3556021,-0.44892886,-1.117112,0.13073638,0.0004888793,0.00011499188,0.0,0.000405157,0.001523112,-0.001120055,-0.002106555,-0.00022161186,-0.012446839,-0.016992074,0.05832838,0.056225814,0.052536774,-1.1102942,-0.0131517695,229.40579,0.1,0.05598068,0.0599916,0.015855514,0.011401645,inf,inf,inf,inf,1,1,1,1,2,0,2,1,4,0,1,1,1,0
830396000,830396000,1036000,41.606704,-86.3556021,-0.44892788,-1.117066,0.1307035,0.0004888793,0.00011499188,0.0,0.0005452131,0.0014497142,-0.0012094366,-0.0022030307,-0.00022161186,-0.012446839,-0.016992074,0.019060811,-0.042553462,-0.013244401,-1.1102974,-0.0131517695,229.40579,0.1,0.05598282,0.059992664,0.016402423,0.011806612,inf,inf,inf,inf,1,1,1,1,2,0,2,1,4,0,1,1,1,0
830404000,830404000,1036000,41.606704,-86.3556021,-0.44892633,-1.1170225,0.13067032,0.0004888793,0.00011499188,0.0,0.0005529723,0.0010408114,-0.0011122742,-0.0021123826,-0.00022161186,-0.012446839,-0.016992074,-0.0019704509,-0.042809486,0.03329472,-1.1103133,-0.0131517695,229.40579,0.1,0.05598527,0.059993874,0.016934598,0.012202235,inf,inf,inf,inf,1,1,1,1,2,0,2,1,4,0,1,1,1,0
830412000,830412000,1036000,41.606704,-86.3556021,-0.44892526,-1.1169811,0.13063735,0.0004888793,0.00011499188,0.0,0.0004045917,0.0008257797,-0.0012298336,-0.002236102,-0.00022161186,-0.012446839,-0.016992074,-0.03632085,-0.041355576,-0.019618373,-1.1103077,-0.0131517695,229.40579,0.1,0.055988032,0.059986435,0.0174554,0.012589398,inf,inf,inf,inf,1,1,1,1,2,0,2,1,4,0,1,1,1,0
830420000,830420000,1036000,41.606704,-86.3556021,-0.44892794,-1.1169426,0.13060461,0.0004888793,0.00011499188,0.0,-0.0003492861,0.0004310879,-0.0005862877,-0.0015981051,-0.00022161186,-0.012446839,-0.016992074,-0.093907945,-0.05337326,0.20241265,-1.1103104,-0.0131517695,229.40579,0.1,0.05594729,0.059987973,0.017948907,0.012963468,inf,inf,inf,inf,1,1,1,1,2,0,2,1,4,0,1,1,1,0
830428000,830428000,1036000,41.606704,-86.3556021,-0.44893545,-1.1169076,0.13058019,0.0004888793,0.00011499188,0.0,-0.0007085745,-3.210505e-05,-0.00051340647,-0.0015302277,-0.00022161186,-0.012446839,-0.016992074,-0.028675452,-0.057072382,-0.1995061,-1.1102756,-0.0131517695,229.40579,0.1,0.05595076,0.059989702,0.0184479,0.0133359665,inf,inf,inf,inf,1,1,1,1,2,0,2,1,4,0,1,1,1,0
830436000,830436000,1036000,41.606704,-86.3556021,-0.4489452,-1.1168741,0.13054386,0.0004888793,0.00011499188,0.0,-0.00088246324,5.8420348e-05,-0.0023074313,-0.0033287248,-0.00022161186,-0.012446839,-0.016992074,-0.004050669,0.01888466,-0.10794314,-1.1102362,-0.0131517695,229.40579,0.1,0.05595462,0.05999162,0.018937137,0.013701984,inf,inf,inf,inf,1,1,1,1,2,0,2,1,4,0,1,1,1,0
830444000,830444000,1036000,41.606704,-86.3556021,-0.44895414,-1.1168396,0.13050446,0.0004888793,0.00011499188,0.0,-0.00056449336,0.00012380429,-0.0015286341,-0.002553882,-0.00022161186,-0.012446839,-0.016992074,0.03847703,-0.0073796995,0.16483471,-1.1102264,-0.0131517695,229.40579,0.1,0.055958893,0.059993748,0.019417414,0.014062025,inf,inf,inf,inf,1,1,1,1,2,0,2,1,4,0,1,1,1,0
830452000,830452000,1036000,41.606704,-86.3556021,-0.4489623,-1.1168059,0.13047259,0.0004888793,0.00011499188,0.0,-0.000672579,-0.00011201193,-0.00087649433,-0.0019051919,-0.00022161186,-0.012446839,-0.016992074,-0.012255896,-0.038626343,0.050070632,-1.1102428,-0.0131517695,229.40579,0.1,0.055963594,0.05999609,0.019888401,0.014416542,inf,inf,inf,inf,1,1,1,1,2,0,2,1,4,0,1,1,1,0
830460000,830460000,1036000,41.606704,-86.3556021,-0.44897085,-1.1167738,0.13044336,0.0004888793,0.00011499188,0.0,-0.0006350287,-0.00021192462,-0.0007833547,-0.00181501,-0.00022161186,-0.012446839,-0.016992074,0.006777229,-0.0028966148,0.016217055,-1.1102619,-0.0131517695,229.40579,0.1,0.055968754,0.059998665,0.02035521,0.014765929,inf,inf,inf,inf,1,1,1,1,2,0,2,1,4,0,1,1,1,0
830468000,830468000,1036000,41.606704,-86.3556021,-0.44897884,-1.1167412,0.13041581,0.0004888793,0.00011499188,0.0,-0.00052690064,-1.7335595e-05,-0.00047545732,-0.001509591,-0.00022161186,-0.012446839,-0.016992074,0.012423318,0.022141635,0.057483956,-1.1102618,-0.0131517695,229.40579,0.1,0.055974394,0.060001485,0.020812457,0.015110547,inf,inf,inf,inf,1,1,1,1,2,0,2,1,4,0,1,1,1,0
830476000,830476000,1036000,41.606704,-86.3556021,-0.44898665,-1.1167227,0.13039829,0.0004888793,0.00011499188,0.0,-0.00042141002,-0.00011642785,-0.00043504138,-0.001454848,-0.00022161186,-0.012446839,-0.016992074,0.0394604,-0.016328465,-0.02029917,-1.1102595,-0.0131517695,229.40579,0.100014165,0.05594099,0.0599756,0.0014142136,0.001,inf,inf,inf,inf,1,1,1,1,2,0,2,1,4,0,1,1,1,0
830484000,830484000,1036000,41.606704,-86.3556021,-0.44899136,-1.1167088,0.13038214,0.0004888793,0.00011499188,0.0,5.3440705e-05,-0.00091727066,0.0002284578,-0.00077697734,-0.00022161186,-0.012446839,-0.016992074,0.034382377,-0.09485598,0.19477022,-1.11028,-0.0131517695,229.40579,0.10003112,0.05594102,0.059975617,0.0042137173,0.0029834385,inf,inf,inf,inf,1,1,1,1,2,0,2,1,4,0,1,1,1,0
830492000,830492000,1036000,41.606704,-86.3556021,-0.4489945,-1.1167011,0.13037594,0.0004888793,0.00011499188,0.0,0.0001596623,-0.0012877556,0.00050547626,-0.0004855493,-0.00022161186,-0.012446839,-0.016992074,0.032188956,-0.003747397,-0.19251467,-1.1102841,-0.0131517695,229.40579,0.10003884,0.055941056,0.059975635,0.005799373,0.0041111624,inf,inf,inf,inf,1,1,1,1,2,0,2,1,4,0,1,1,1,0
830500000,830500000,1036000,41.606704,-86.3556021,-0.44899508,-1.1166952,0.13036022,0.0004888793,0.00011499188,0.0,0.00064325286,-0.0013018305,-0.0008644371,-0.0018410205,-0.00022161186,-0.012446839,-0.016992074,0.0672899,0.0066572777,-0.0255956,-1.1103044,-0.0131517695,229.40579,0.10005903,0.05594112,0.05997567,0.007044796,0.005000227,inf,inf,inf,inf,1,1,1,1,2,0,2,1,4,0,1,1,1,0
830508000,830508000,1036000,41.606704,-86.3556021,-0.44899416,-1.1166911,0.13034539,0.0004888793,0.00011499188,0.0,0.0003863139,-0.001476933,-7.803104e-05,-0.0010401455,-0.00022161186,-0.012446839,-0.016992074,-0.06556265,-0.002270435,0.08342781,-1.1102947,-0.0131517695,229.40579,0.100081965,0.055941224,0.059975725,0.0081086345,0.0057621812,inf,inf,inf,inf,1,1,1,1,2,0,2,1,4,0,1,1,1,0
830516000,830516000,1036000,41.606704,-86.3556021,-0.44899705,-1.1166881,0.13033588,0.0004888793,0.00011499188,0.0,-0.00016783847,-0.001385022,0.0002760122,-0.00067161187,-0.00022161186,-0.012446839,-0.016992074,-0.06747521,0.026765585,0.03373244,-1.1102746,-0.0131517695,229.40579,0.10009347,0.055941395,0.05997581,0.009055816,0.0064422833,inf,inf,inf,inf,1,1,1,1,2,0,2,1,4,0,1,1,1,0
830524000,830524000,1036000,41.606704,-86.3556021,-0.44900343,-1.1166853,0.13032876,0.0004888793,0.00011499188,0.0,-0.0004145163,-0.0013467195,0.00032952704,-0.0006035906,-0.00022161186,-0.012446839,-0.016992074,-0.013154044,0.0089453915,0.00023276743,-1.110281,-0.0131517695,229.40579,0.10009925,0.055941645,0.059975937,0.00991816,0.0070642144,inf,inf,inf,inf,1,1,1,1,2,0,2,1,4,0,1,1,1,0
830532000,830532000,1036000,41.606704,-86.3556021,-0.44901168,-1.1166834,0.13032307,0.0004888793,0.00011499188,0.0,-0.0007433301,-0.0013744633,0.00045783044,-0.00046073488,-0.00022161186,-0.012446839,-0.016992074,-0.051540475,0.012373198,0.014406566,-1.110326,-0.0131517695,229.40579,0.10011117,0.055941995,0.05996731,0.010717081,0.0076421928,inf,inf,inf,inf,1,1,1,1,2,0,2,1,4,0,1,1,1,0
830540000,830540000,1036000,41.606704,-86.3556021,-0.449024,-1.1166836,0.13032605,0.0004888793,0.00011499188,0.0,-0.0013036416,-0.0018137695,0.0023626047,0.0014585969,-0.00022161186,-0.012446839,-0.016992074,-0.04844012,-0.06656373,0.25108728,-1.1103244,-0.0131517695,229.40579,0.10011701,0.05594247,0.059967548,0.011466091,0.008185532,inf,inf,inf,inf,1,1,1,1,2,0,2,1,4,0,1,1,1,0
830548000,830548000,1036000,41.606704,-86.3556021,-0.44903773,-1.1166885,0.13033006,0.0004888793,0.00011499188,0.0,-0.0012450657,-0.0020693068,0.00023322171,-0.0006562287,-0.00022161186,-0.012446839,-0.016992074,-0.009474298,0.018532505,-0.32403046,-1.1103313,-0.0131517695,229.40579,0.10012412,0.055943076,0.05996785,0.01217407,0.008700724,inf,inf,inf,inf,1,1,1,1,2,0,2,1,4,0,1,1,1,0
830556000,830556000,1036000,41.606704,-86.3556021,-0.44905192,-1.1166928,0.13032229,0.0004888793,0.00011499188,0.0,-0.0012292197,-0.0016525023,-0.0004363995,-0.0013113212,-0.00022161186,-0.012446839,-0.016992074,0.033887405,0.058308505,-0.0582785,-1.1103207,-0.0131517695,229.40579,0.10014467,0.055943843,0.059968233,0.012848166,0.009192503,inf,inf,inf,inf,1,1,1,1,2,0,2,1,4,0,1,1,1,0
830564000,830564000,1036000,41.606704,-86.3556021,-0.44906524,-1.1166953,0.13031255,0.0004888793,0.00011499188,0.0,-0.001201064,-0.0014872254,-0.00052718323,-0.0013876316,-0.00022161186,-0.012446839,-0.016992074,-0.006946083,0.019812075,-0.0006864479,-1.1103349,-0.0131517695,229.40579,0.10016994,0.05594479,0.059968702,0.013492945,0.009664444,inf,inf,inf,inf,1,1,1,1,2,0,2,1,4,0,1,1,1,0
830572000,830572000,1036000,41.606704,-86.3556021,-0.4490779,-1.1166999,0.1303041,0.0004888793,0.00011499188,0.0,-0.0010297006,-0.0019654592,-0.00033357684,-0.0011796111,-0.00022161186,-0.012446839,-0.016992074,0.019298658,-0.0584815,0.01705804,-1.1103259,-0.0131517695,229.40579,0.100197524,0.055945933,0.05996927,0.014112959,0.010119324,inf,inf,inf,inf,1,1,1,1,2,0,2,1,4,0,1,1,1,0
830580000,830580000,1036000,41.606704,-86.3556021,-0.44909093,-1.1167077,0.13029651,0.0004888793,0.00011499188,0.0,-0.0013585846,-0.0020377208,-0.00043254593,-0.0012642284,-0.00022161186,-0.012446839,-0.016992074,-0.05906539,0.013943058,-0.0011716669,-1.1103307,-0.0131517695,229.40579,0.10021974,0.055947296,0.059969947,0.014712298,0.010559346,inf,inf,inf,inf,1,1,1,1,2,0,2,1,4,0,1,1,1,0
830588000,830588000,1036000,41.606704,-86.3556021,-0.4491074,-1.1167175,0.1302919,0.0004888793,0.00011499188,0.0,-0.0017528961,-0.0024006788,0.00022800223,-0.0005893938,-0.00022161186,-0.012446839,-0.016992074,-0.030445354,-0.044499326,0.090035535,-1.1103327,-0.0131517695,229.40579,0.10023652,0.0559489,0.05997074,0.015290931,0.010986295,inf,inf,inf,inf,1,1,1,1,2,0,2,1,4,0,1,1,1,0
830596000,830596000,1036000,41.606704,-86.3556021,-0.44912428,-1.1167302,0.13029177,0.0004888793,0.00011499188,0.0,-0.0014857977,-0.0025828073,0.00021647676,-0.0005862698,-0.00022161186,-0.012446839,-0.016992074,0.047299124,-0.004864739,-0.04510308,-1.1102957,-0.0131517695,229.40579,0.10026671,0.055950765,0.059962858,0.015852744,0.01140164,inf,inf,inf,inf,1,1,1,1,2,0,2,1,4,0,1,1,1,0
830604000,830604000,1036000,41.606704,-86.3556021,-0.44914076,-1.1167456,0.13029662,0.0004888793,0.00011499188,0.0,-0.0018367645,-0.0029677453,0.0016279413,0.00083975843,-0.00022161186,-0.012446839,-0.016992074,-0.07360911,-0.03810521,0.2107722,-1.1102774,-0.0131517695,229.40579,0.10027993,0.055952907,0.059963923,0.01639946,0.011806609,inf,inf,inf,inf,1,1,1,1,2,0,2,1,4,0,1,1,1,0
830612000,830612000,1036000,41.606704,-86.3556021,-0.44915986,-1.1167626,0.13029933,0.0004888793,0.00011499188,0.0,-0.001847625,-0.0028690104,-0.0008712498,-0.0016449572,-0.00022161186,-0.012446839,-0.016992074,0.04336722,0.027325558,-0.37975332,-1.110262,-0.0131517695,229.40579,0.10029587,0.055955354,0.059965134,0.016932303,0.012202232,inf,inf,inf,inf,1,1,1,1,2,0,2,1,4,0,1,1,1,0
830620000,830620000,1036000,41.606704,-86.3556021,-0.4491761,-1.1167785,0.13028982,0.0004888793,0.00011499188,0.0,-0.001330795,-0.0024615256,-0.0010760332,-0.0018353546,-0.00022161186,-0.012446839,-0.016992074,0.06081002,0.082186006,0.031010184,-1.110244,-0.0131517695,229.40579,0.10033205,0.055958122,0.059966505,0.01745117,0.01258939,inf,inf,inf,inf,1,1,1,1,2,0,2,1,4,0,1,1,1,0
830628000,830628000,1036000,41.606704,-86.3556021,-0.4491893,-1.1167909,0.13028109,0.0004888793,0.00011499188,0.0,-0.0010508253,-0.0021692475,-0.0010649294,-0.001809966,-0.00022161186,-0.012446839,-0.016992074,0.021420883,0.013742601,-0.006594758,-1.1102641,-0.0131517695,229.40579,0.100366265,0.05591745,0.059968043,0.017945834,0.012963461,inf,inf,inf,inf,1,1,1,1,2,0,2,1,4,0,1,1,1,0
830636000,830636000,1036000,41.606704,-86.3556021,-0.4492013,-1.1168039,0.1302731,0.0004888793,0.00011499188,0.0,-0.0009558193,-0.0023404376,-0.0009931212,-0.0017239666,-0.00022161186,-0.012446839,-0.016992074,0.018711807,-0.008985492,0.009685691,-1.1102743,-0.0131517695,229.40579,0.1003885,0.05592092,0.05996977,0.018445207,0.013335957,inf,inf,inf,inf,1,1,1,1,2,0,2,1,4,0,1,1,1,0
830644000,830644000,1036000,41.606704,-86.3556021,-0.44921327,-1.1168191,0.13026646,0.0004888793,0.00011499188,0.0,-0.0011503942,-0.0027596634,-0.00088087306,-0.001597622,-0.00022161186,-0.012446839,-0.016992074,-0.04054314,-0.056961615,0.008284982,-1.1102816,-0.0131517695,229.40579,0.10040623,0.055924784,0.059971694,0.018934451,0.013701972,inf,inf,inf,inf,1,1,1,1,2,0,2,1,4,0,1,1,1,0
830652000,830652000,1036000,41.606704,-86.3556021,-0.44922593,-1.1168373,0.1302629,0.0004888793,0.00011499188,0.0,-0.0009957877,-0.002834089,0.0002032918,-0.000499648,-0.00022161186,-0.012446839,-0.016992074,0.0381348,0.019124428,0.25586218,-1.1103053,-0.0131517695,229.40579,0.100415155,0.055929054,0.05996502,0.019414557,0.014062009,inf,inf,inf,inf,1,1,1,1,2,0,2,1,4,0,1,1,1,0
830660000,830660000,1036000,41.606704,-86.3556021,-0.44923654,-1.1168566,0.13027135,0.0004888793,0.00011499188,0.0,-0.0007021146,-0.003105458,0.0005512414,-0.00013798017,-0.00022161186,-0.012446839,-0.016992074,0.043909438,-0.03472211,-0.19901437,-1.1103154,-0.0131517695,229.40579,0.1004183,0.05593376,0.059967365,0.019886667,0.01441652,inf,inf,inf,inf,1,1,1,1,2,0,2,1,4,0,1,1,1,0
830668000,830668000,1036000,41.606704,-86.3556021,-0.4492444,-1.116878,0.13027143,0.0004888793,0.00011499188,0.0,-0.00034843406,-0.0032859044,-0.00050209946,-0.0011776955,-0.00022161186,-0.012446839,-0.016992074,0.045617335,-0.010729942,0.0014621131,-1.1103182,-0.0131517695,229.40579,0.10043192,0.05593892,0.05996994,0.020350406,0.014765901,inf,inf,inf,inf,1,1,1,1,2,0,2,1,4,0,1,1,1,0
830676000,830676000,1036000,41.606704,-86.3556021,-0.44924957,-1.1169009,0.13027267,0.0004888793,0.00011499188,0.0,-0.00013731583,-0.0033790076,0.00022201746,-0.0004400472,-0.00022161186,-0.012446839,-0.016992074,0.0049204463,-0.0032113402,0.09592708,-1.110319,-0.0131517695,229.40579,0.100446865,0.05594456,0.05997276,0.020807603,0.015110509,inf,inf,inf,inf,1,1,1,1,2,0,2,1,4,0,1,1,1,0
830684000,830684000,1036000,41.606704,-86.3556021,-0.44924948,-1.1169144,0.1302679,0.0004888793,0.00011499188,0.0,-0.00040988962,-0.0035403299,0.00045107404,-0.00021904497,-0.00022161186,-0.012446839,-0.016992074,-0.034852747,-0.039107993,0.027898634,-1.11031,-0.0131517695,229.40579,0.10013063,0.055911142,0.059955683,0.0014142136,0.001,inf,inf,inf,inf,1,1,1,1,2,0,2,1,4,0,1,1,1,0
830692000,830692000,1036000,41.606704,-86.3556021,-0.44925055,-1.1169292,0.1302643,0.0004888793,0.00011499188,0.0,-0.0006076223,-0.0036930745,0.0005827741,-9.495061e-05,-0.00022161186,-0.012446839,-0.016992074,-0.044100903,-0.015173979,0.021139095,-1.1103052,-0.0131517695,229.40579,0.100124165,0.05591117,0.059955694,0.004214306,0.0029834392,inf,inf,inf,inf,1,1,1,1,2,0,2,1,4,0,1,1,1,0
830700000,830700000,1036000,41.606704,-86.3556021,-0.44925335,-1.1169444,0.13026027,0.0004888793,0.00011499188,0.0,-0.00083522015,-0.003781773,0.00034895266,-0.00033593824,-0.00022161186,-0.012446839,-0.016992074,-0.022556132,-0.007258264,-0.03244175,-1.1103168,-0.0131517695,229.40579,0.100107,0.055911206,0.059955716,0.00580024,0.004111167,inf,inf,inf,inf,1,1,1,1,2,0,2,1,4,0,1,1,1,0
830708000,830708000,1036000,41.606704,-86.3556021,-0.4492569,-1.1169584,0.13025512,0.0004888793,0.00011499188,0.0,-0.00092115504,-0.003502829,0.0005569227,-0.00013470455,-0.00022161186,-0.012446839,-0.016992074,-0.011936029,0.029684786,0.07495929,-1.1103053,-0.0131517695,229.40579,0.10008995,0.055911265,0.059955746,0.0070460807,0.0050002337,inf,inf,inf,inf,1,1,1,1,2,0,2,1,4,0,1,1,1,0
830716000,830716000,1036000,41.606704,-86.3556021,-0.44925982,-1.11697,0.13025458,0.0004888793,0.00011499188,0.0,-0.00081031164,-0.0034196954,0.0017558051,0.0010574998,-0.00022161186,-0.012446839,-0.016992074,0.003564278,-0.025238624,0.22959237,-1.1102899,-0.0131517695,229.40579,0.10005702,0.055911373,0.05994701,0.008110112,0.005762186,inf,inf,inf,inf,1,1,1,1,2,0,2,1,4,0,1,1,1,0
830724000,830724000,1036000,41.606704,-86.3556021,-0.44926086,-1.1169837,0.13026206,0.0004888793,0.00011499188,0.0,-0.0004278473,-0.003872843,0.0014052766,0.00070071645,-0.00022161186,-0.012446839,-0.016992074,0.06535445,-0.028438266,-0.26337713,-1.1102848,-0.0131517695,229.40579,0.100027874,0.055911537,0.059947096,0.009056668,0.0064422856,inf,inf,inf,inf,1,1,1,1,2,0,2,1,4,0,1,1,1,0
830732000,830732000,1036000,41.606704,-86.3556021,-0.44925776,-1.116997,0.13025455,0.0004888793,0.00011499188,0.0,3.7038117e-05,-0.003626304,-0.00045135315,-0.0011617545,-0.00022161186,-0.012446839,-0.016992074,0.04933449,0.016668156,-0.07457199,-1.1102711,-0.0131517695,229.40579,0.10001822,0.055911787,0.059947222,0.009919022,0.007064219,inf,inf,inf,inf,1,1,1,1,2,0,2,1,4,0,1,1,1,0
830740000,830740000,1036000,41.606704,-86.3556021,-0.44924963,-1.1170076,0.13024426,0.0004888793,0.00011499188,0.0,0.00071978435,-0.003239011,0.00023211614,-0.00048372202,-0.00022161186,-0.012446839,-0.016992074,0.071803406,0.05300139,0.10594532,-1.1102644,-0.0131517695,229.40579,0.10001683,0.05591214,0.059947398,0.010718224,0.0076421974,inf,inf,inf,inf,1,1,1,1,2,0,2,1,4,0,1,1,1,0
830748000,830748000,1036000,41.606704,-86.3556021,-0.4492391,-1.1170151,0.13023733,0.0004888793,0.00011499188,0.0,0.00046488008,-0.0030443233,0.0002650444,-0.000455836,-0.00022161186,-0.012446839,-0.016992074,-0.06501301,0.0124559775,-0.014405759,-1.1102599,-0.0131517695,229.40579,0.10000901,0.05591261,0.059947636,0.011468037,0.008185538,inf,inf,inf,inf,1,1,1,1,2,0,2,1,4,0,1,1,1,0
830756000,830756000,1036000,41.606704,-86.3556021,-0.4492303,-1.1170207,0.13022925,0.0004888793,0.00011499188,0.0,0.00042114645,-0.00286688,0.0001476776,-0.00057785976,-0.00022161186,-0.012446839,-0.016992074,0.015136285,0.0075015137,0.0064158174,-1.1102078,-0.0131517695,229.40579,0.100000724,0.055913217,0.059947938,0.012175976,0.008700731,inf,inf,inf,inf,1,1,1,1,2,0,2,1,4,0,1,1,1,0
830764000,830764000,1036000,41.606704,-86.3556021,-0.4492197,-1.1170259,0.13022228,0.0004888793,0.00011499188,0.0,0.0007191033,-0.0029434504,0.0005564953,-0.00017329275,-0.00022161186,-0.012446839,-0.016992074,0.028213393,-0.0073559415,0.06487959,-1.1101646,-0.0131517695,229.40579,0.1,0.05591399,0.05994832,0.01284999,0.009192507,inf,inf,inf,inf,1,1,1,1,2,0,2,1,4,0,1,1,1,0
830772000,830772000,1036000,41.606704,-86.3556021,-0.449206,-1.1170297,0.13021536,0.0004888793,0.00011499188,0.0,0.0012205385,-0.002704105,0.00030510692,-0.00042931153,-0.00022161186,-0.012446839,-0.016992074,0.0810849,0.026253337,-0.043009467,-1.1101508,-0.0131517695,229.40579,0.1,0.055914935,0.05994,0.013495087,0.009664445,inf,inf,inf,inf,1,1,1,1,2,0,2,1,4,0,1,1,1,0
830780000,830780000,1036000,41.606704,-86.3556021,-0.44918725,-1.1170309,0.13020608,0.0004888793,0.00011499188,0.0,0.0017449637,-0.0023674974,0.00013955982,-0.0005990432,-0.00022161186,-0.012446839,-0.016992074,0.043929044,0.051312447,0.003935706,-1.110131,-0.0131517695,229.40579,0.1,0.05591608,0.059940565,0.014115451,0.010119321,inf,inf,inf,inf,1,1,1,1,2,0,2,1,4,0,1,1,1,0
830788000,830788000,1036000,41.606704,-86.3556021,-0.44916448,-1.1170275,0.1301982,0.0004888793,0.00011499188,0.0,0.0021803288,-0.0017616081,0.0009869265,0.00024457363,-0.00022161186,-0.012446839,-0.016992074,0.037773956,0.057936992,0.20997499,-1.110148,-0.0131517695,229.40579,0.1,0.05591744,0.059941243,0.014713713,0.010559342,inf,inf,inf,inf,1,1,1,1,2,0,2,1,4,0,1,1,1,0
830796000,830796000,1036000,41.606704,-86.3556021,-0.44913995,-1.1170208,0.13019916,0.0004888793,0.00011499188,0.0,0.0021802622,-0.0015480341,0.001063638,0.00031795938,-0.00022161186,-0.012446839,-0.016992074,-0.0012923325,0.022742378,-0.2101176,-1.1101699,-0.0131517695,229.40579,0.1,0.055919047,0.059942037,0.015292018,0.010986292,inf,inf,inf,inf,1,1,1,1,2,0,2,1,4,0,1,1,1,0
830804000,830804000,1036000,41.606704,-86.3556021,-0.44911385,-1.1170113,0.1301873,0.0004888793,0.00011499188,0.0,0.0025658486,-0.0011790281,-0.00066192367,-0.0014105148,-0.00022161186,-0.012446839,-0.016992074,0.060705148,0.03583311,-0.054922946,-1.1101727,-0.0131517695,229.40579,0.1,0.05592091,0.05994296,0.015854359,0.0114016365,inf,inf,inf,inf,1,1,1,1,2,0,2,1,4,0,1,1,1,0
830812000,830812000,1036000,41.606704,-86.3556021,-0.4490839,-1.1170013,0.13017341,0.0004888793,0.00011499188,0.0,0.0029132967,-0.0015641551,-0.00013576768,-0.0008868682,-0.00022161186,-0.012446839,-0.016992074,0.012467353,-0.07036347,0.05749327,-1.1101508,-0.0131517695,229.40579,0.1,0.05592306,0.059944022,0.016402578,0.011806607,inf,inf,inf,inf,1,1,1,1,2,0,2,1,4,0,1,1,1,0
830820000,830820000,1036000,41.606704,-86.3556021,-0.44905367,-1.1169939,0.13016278,0.0004888793,0.00011499188,0.0,0.002684913,-0.0017821888,0.00018088798,-0.00057232915,-0.00022161186,-0.012446839,-0.016992074,-0.035275415,-0.010817218,0.040410023,-1.1101544,-0.0131517695,229.40579,0.1,0.055925507,0.059945233,0.016935002,0.012202236,inf,inf,inf,inf,1,1,1,1,2,0,2,1,4,0,1,1,1,0
830828000,830828000,1036000,41.606704,-86.3556021,-0.44902635,-1.1169862,0.13015255,0.0004888793,0.00011499188,0.0,0.0021219354,-0.0016638541,-7.556338e-05,-0.00083051465,-0.00022161186,-0.012446839,-0.016992074,-0.082969375,-0.0035829307,-0.0412027,-1.1101338,-0.0131517695,229.40579,0.1,0.055928275,0.059946608,0.017455367,0.012589392,inf,inf,inf,inf,1,1,1,1,2,0,2,1,4,0,1,1,1,0
830836000,830836000,1036000,41.606704,-86.3556021,-0.4490019,-1.1169789,0.13013856,0.0004888793,0.00011499188,0.0,0.0020359377,-0.0019217263,-0.00053082744,-0.0012877728,-0.00022161186,-0.012446839,-0.016992074,0.0080358945,-0.038835377,-0.04366698,-1.1101291,-0.0131517695,229.40579,0.1,0.055931393,0.059939362,0.017964432,0.012968844,inf,inf,inf,inf,1,1,1,1,2,0,2,1,4,0,1,1,1,0
830844000,830844000,1036000,41.606704,-86.3556021,-0.44897613,-1.1169747,0.1301287,0.0004888793,0.00011499188,0.0,0.0023799571,-0.0025744408,0.0010127126,0.00025415816,-0.00022161186,-0.012446839,-0.016992074,0.05027516,-0.09750666,0.2248389,-1.1100875,-0.0131517695,229.40579,0.1,0.05593488,0.05994109,0.018462574,0.013341248,inf,inf,inf,inf,1,1,1,1,2,0,2,1,4,0,1,1,1,0
830852000,830852000,1036000,41.606704,-86.3556021,-0.44894558,-1.1169745,0.13011722,0.0004888793,0.00011499188,0.0,0.003101233,-0.0028129907,-0.0013151006,-0.0020748894,-0.00022161186,-0.012446839,-0.016992074,0.07256602,-0.013699215,-0.3468292,-1.1100584,-0.0131517695,229.40579,0.1,0.05593875,0.059943013,0.018951667,0.013707181,inf,inf,inf,inf,1,1,1,1,2,0,2,1,4,0,1,1,1,0
830860000,830860000,1036000,41.606704,-86.3556021,-0.44891214,-1.1169748,0.13009372,0.0004888793,0.00011499188,0.0,0.0031420623,-0.0028106107,-0.0014906419,-0.0022513005,-0.00022161186,-0.012446839,-0.016992074,0.007452257,0.01000006,0.055519797,-1.110033,-0.0131517695,229.40579,0.10000107,0.05594304,0.059945144,0.019431802,0.014067149,inf,inf,inf,inf,1,1,1,1,2,0,2,1,4,0,1,1,1,0
830868000,830868000,1036000,41.606704,-86.3556021,-0.44887626,-1.1169734,0.13007219,0.0004888793,0.00011499188,0.0,0.0036693485,-0.0025839312,-0.001254073,-0.0020152472,-0.00022161186,-0.012446839,-0.016992074,0.062221933,0.00596315,0.010328304,-1.1100092,-0.0131517695,229.40579,0.10002066,0.055947755,0.059947494,0.01990275,0.014421595,inf,inf,inf,inf,1,1,1,1,2,0,2,1,4,0,1,1,1,0
830876000,830876000,1036000,41.606704,-86.3556021,-0.4488377,-1.1169721,0.13005188,0.0004888793,0.00011499188,0.0,0.003759919,-0.0027447562,-0.0010892597,-0.0018506048,-0.00022161186,-0.012446839,-0.016992074,0.0007574628,-0.018316085,0.027348222,-1.1100007,-0.0131517695,229.40579,0.10004327,0.055952933,0.059950072,0.020366734,0.014770911,inf,inf,inf,inf,1,1,1,1,2,0,2,1,4,0,1,1,1,0
830884000,830884000,1036000,41.606704,-86.3556021,-0.4487988,-1.1169703,0.13003261,0.0004888793,0.00011499188,0.0,0.0036348312,-0.002557087,-0.0010322074,-0.0017933883,-0.00022161186,-0.012446839,-0.016992074,-0.048525643,0.018811174,0.019378895,-1.1100227,-0.0131517695,229.40579,0.10005875,0.055958584,0.059952892,0.020825388,0.015115463,inf,inf,inf,inf,1,1,1,1,2,0,2,1,4,0,1,1,1,0
830892000,830892000,1036000,41.606704,-86.3556021,-0.44877568,-1.1169734,0.13001534,0.0004888793,0.00011499188,0.0,0.0032827226,-0.002800155,-0.0010864675,-0.0018431931,-0.00022161186,-0.012446839,-0.016992074,0.010537821,-0.026398065,-0.0069570425,-1.1100259,-0.0131517695,229.40579,0.10012269,0.055925038,0.059926998,0.0014142136,0.001,inf,inf,inf,inf,1,1,1,1,2,0,2,1,4,0,1,1,1,0
830900000,830900000,1036000,41.606704,-86.3556021,-0.44875315,-1.1169775,0.12999927,0.0004888793,0.00011499188,0.0,0.0033989088,-0.0028332167,-0.00080917013,-0.0015612192,-0.00022161186,-0.012446839,-0.016992074,0.0062640836,-0.009254001,0.03647798,-1.1100364,-0.0131517695,229.40579,0.10014029,0.055925068,0.059927013,0.0042136763,0.0029834383,inf,inf,inf,inf,1,1,1,1,2,0,2,1,4,0,1,1,1,0
830908000,830908000,1036000,41.606704,-86.3556021,-0.44873303,-1.1169827,0.1299912,0.0004888793,0.00011499188,0.0,0.0029031031,-0.003039699,0.0008978378,0.0001506788,-0.00022161186,-0.012446839,-0.016992074,-0.05516916,-0.020223578,0.23097165,-1.110016,-0.0131517695,229.40579,0.100150645,0.0559251,0.05992703,0.005799377,0.0041111633,inf,inf,inf,inf,1,1,1,1,2,0,2,1,4,0,1,1,1,0
830916000,830916000,1036000,41.606704,-86.3556021,-0.44871682,-1.1169882,0.1299829,0.0004888793,0.00011499188,0.0,0.0026827408,-0.0028236194,-0.0012297172,-0.0019717806,-0.00022161186,-0.012446839,-0.016992074,0.0062663723,0.042642713,-0.31809607,-1.1099958,-0.0131517695,229.40579,0.100158885,0.055925164,0.059927065,0.0070451614,0.005000226,inf,inf,inf,inf,1,1,1,1,2,0,2,1,4,0,1,1,1,0
830924000,830924000,1036000,41.606704,-86.3556021,-0.4487005,-1.1169924,0.12996459,0.0004888793,0.00011499188,0.0,0.0030252482,-0.002811978,-0.0012587451,-0.0019955148,-0.00022161186,-0.012446839,-0.016992074,0.06095024,-0.015242951,0.052303012,-1.1100261,-0.0131517695,229.40579,0.100182,0.055925272,0.05992712,0.008108465,0.0057621775,inf,inf,inf,inf,1,1,1,1,2,0,2,1,4,0,1,1,1,0
830932000,830932000,1036000,41.606704,-86.3556021,-0.44868252,-1.117,0.12994884,0.0004888793,0.00011499188,0.0,0.0031692234,-0.0036637983,-0.00092775555,-0.0016590421,-0.00022161186,-0.012446839,-0.016992074,0.016016634,-0.12929884,0.032875624,-1.1100506,-0.0131517695,229.40579,0.10019983,0.05592544,0.05992721,0.009055889,0.00644228,inf,inf,inf,inf,1,1,1,1,2,0,2,1,4,0,1,1,1,0
830940000,830940000,1036000,41.606704,-86.3556021,-0.44866452,-1.1170137,0.12993437,0.0004888793,0.00011499188,0.0,0.0032433243,-0.004125064,-0.0010242972,-0.001749917,-0.00022161186,-0.012446839,-0.016992074,0.0199635,-0.031363484,-0.017763179,-1.1100646,-0.0131517695,229.40579,0.10020685,0.05592569,0.059927337,0.009918743,0.0070642126,inf,inf,inf,inf,1,1,1,1,2,0,2,1,4,0,1,1,1,0
830948000,830948000,1036000,41.606704,-86.3556021,-0.4486474,-1.1170298,0.12992056,0.0004888793,0.00011499188,0.0,0.0030359915,-0.004319675,-0.0004987215,-0.001218499,-0.00022161186,-0.012446839,-0.016992074,-0.030521417,-0.024497049,0.14845833,-1.1100708,-0.0131517695,229.40579,0.1002139,0.055926044,0.059927512,0.010717918,0.007642191,inf,inf,inf,inf,1,1,1,1,2,0,2,1,4,0,1,1,1,0
830956000,830956000,1036000,41.606704,-86.3556021,-0.44863284,-1.117047,0.12991193,0.0004888793,0.00011499188,0.0,0.0029302328,-0.004283985,-0.0007381529,-0.0014526253,-0.00022161186,-0.012446839,-0.016992074,0.024818959,0.028310567,-0.22126086,-1.1100351,-0.0131517695,229.40579,0.100195736,0.055926513,0.059918966,0.011466969,0.00818553,inf,inf,inf,inf,1,1,1,1,2,0,2,1,4,0,1,1,1,0
830964000,830964000,1036000,41.606704,-86.3556021,-0.4486192,-1.1170624,0.12989253,0.0004888793,0.00011499188,0.0,0.002805209,-0.0039249584,-0.0019809233,-0.0026899031,-0.00022161186,-0.012446839,-0.016992074,-0.017031172,0.045528185,-0.020033743,-1.1100513,-0.0131517695,229.40579,0.10021171,0.05592712,0.059919268,0.012175176,0.008700722,inf,inf,inf,inf,1,1,1,1,2,0,2,1,4,0,1,1,1,0
830972000,830972000,1036000,41.606704,-86.3556021,-0.4486055,-1.1170772,0.12987374,0.0004888793,0.00011499188,0.0,0.0032017643,-0.004176573,-0.0012059443,-0.0019092581,-0.00022161186,-0.012446839,-0.016992074,0.07679381,-0.054345842,0.10070663,-1.1100723,-0.0131517695,229.40579,0.10022737,0.05592789,0.05991965,0.012849386,0.0091925,inf,inf,inf,inf,1,1,1,1,2,0,2,1,4,0,1,1,1,0
830980000,830980000,1036000,41.606704,-86.3556021,-0.44858882,-1.1170939,0.12986098,0.0004888793,0.00011499188,0.0,0.0035764321,-0.004234602,-0.00057029957,-0.0012677878,-0.00022161186,-0.012446839,-0.016992074,0.046028893,0.008104578,0.08261849,-1.1100619,-0.0131517695,229.40579,0.1002381,0.055928838,0.05992012,0.0134944115,0.0096644405,inf,inf,inf,inf,1,1,1,1,2,0,2,1,4,0,1,1,1,0
830988000,830988000,1036000,41.606704,-86.3556021,-0.4485718,-1.117112,0.12985332,0.0004888793,0.00011499188,0.0,0.003446052,-0.0045654266,-5.334407e-05,-0.0007448538,-0.00022161186,-0.012446839,-0.016992074,-0.009333291,-0.04733349,0.061944988,-1.1100489,-0.0131517695,229.40579,0.10025181,0.05592998,0.05992069,0.014113487,0.010119318,inf,inf,inf,inf,1,1,1,1,2,0,2,1,4,0,1,1,1,0
830996000,830996000,1036000,41.606704,-86.3556021,-0.4485545,-1.1171311,0.12984939,0.0004888793,0.00011499188,0.0,0.003788326,-0.00434257,0.00021537133,-0.00047001394,-0.00022161186,-0.012446839,-0.016992074,0.053744894,0.04757465,0.015240099,-1.1100552,-0.0131517695,229.40579,0.1002603,0.055931345,0.059921365,0.014713365,0.010559339,inf,inf,inf,inf,1,1,1,1,2,0,2,1,4,0,1,1,1,0
831004000,831004000,1036000,41.606704,-86.3556021,-0.4485363,-1.117149,0.12984592,0.0004888793,0.00011499188,0.0,0.003660732,-0.0042931703,1.7759037e-05,-0.0006613887,-0.00022161186,-0.012446839,-0.016992074,-0.017663378,-0.011299592,-0.02957421,-1.1100223,-0.0131517695,229.40579,0.10025954,0.055889245,0.05992216,0.015282677,0.010983017,inf,inf,inf,inf,1,1,1,1,2,0,2,1,4,0,1,1,1,0
831012000,831012000,1036000,41.606704,-86.3556021,-0.44852096,-1.1171677,0.12984072,0.0004888793,0.00011499188,0.0,0.0032189572,-0.0044825156,-6.6760185e-05,-0.00074021646,-0.00022161186,-0.012446839,-0.016992074,-0.047987103,-0.024164107,0.0010812022,-1.1100397,-0.0131517695,229.40579,0.10024087,0.055891104,0.059914302,0.01584487,0.011398445,inf,inf,inf,inf,1,1,1,1,2,0,2,1,4,0,1,1,1,0
831020000,831020000,1036000,41.606704,-86.3556021,-0.44850823,-1.1171881,0.12983793,0.0004888793,0.00011499188,0.0,0.003079091,-0.004637227,0.000924895,0.0002572828,-0.00022161186,-0.012446839,-0.016992074,-0.015277442,-0.017314415,0.23494375,-1.1100756,-0.0131517695,229.40579,0.10024214,0.055893246,0.059915364,0.016392022,0.011803487,inf,inf,inf,inf,1,1,1,1,2,0,2,1,4,0,1,1,1,0
831028000,831028000,1036000,41.606704,-86.3556021,-0.4484987,-1.117211,0.12984613,0.0004888793,0.00011499188,0.0,0.0026261832,-0.0050215567,0.001191646,0.00053002394,-0.00022161186,-0.012446839,-0.016992074,-0.02602219,-0.028664684,-0.20121415,-1.110078,-0.0131517695,229.40579,0.10023427,0.055895686,0.059916575,0.01692481,0.012199176,inf,inf,inf,inf,1,1,1,1,2,0,2,1,4,0,1,1,1,0
831036000,831036000,1036000,41.606704,-86.3556021,-0.44849053,-1.1172342,0.12984227,0.0004888793,0.00011499188,0.0,0.0027137753,-0.0048838085,-0.00072029064,-0.0013757831,-0.00022161186,-0.012446839,-0.016992074,0.014821669,-0.008724331,-0.11670223,-1.110081,-0.0131517695,229.40579,0.10023974,0.055898454,0.05991795,0.017445637,0.012586394,inf,inf,inf,inf,1,1,1,1,2,0,2,1,4,0,1,1,1,0
831044000,831044000,1036000,41.606704,-86.3556021,-0.44848156,-1.1172587,0.12983413,0.0004888793,0.00011499188,0.0,0.0029371663,-0.005164686,-0.0003787724,-0.0010280022,-0.00022161186,-0.012446839,-0.016992074,0.043109946,-0.024192555,0.066376224,-1.1100588,-0.0131517695,229.40579,0.10024367,0.05590157,0.059919495,0.017955862,0.012965903,inf,inf,inf,inf,1,1,1,1,2,0,2,1,4,0,1,1,1,0
831052000,831052000,1036000,41.606704,-86.3556021,-0.44847187,-1.1172855,0.12982856,0.0004888793,0.00011499188,0.0,0.0029153852,-0.0054640626,-0.00039336833,-0.0010362087,-0.00022161186,-0.012446839,-0.016992074,-0.0008001123,-0.034785196,-0.034726284,-1.110063,-0.0131517695,229.40579,0.100243285,0.055905048,0.059921224,0.018453917,0.013338358,inf,inf,inf,inf,1,1,1,1,2,0,2,1,4,0,1,1,1,0
831060000,831060000,1036000,41.606704,-86.3556021,-0.44846287,-1.1173143,0.12982224,0.0004888793,0.00011499188,0.0,0.0028254043,-0.005626992,-0.00037650007,-0.0010128301,-0.00022161186,-0.012446839,-0.016992074,-0.0067537497,-0.012223782,0.038735505,-1.1101229,-0.0131517695,229.40579,0.100249395,0.055908915,0.05992315,0.018942405,0.013704336,inf,inf,inf,inf,1,1,1,1,2,0,2,1,4,0,1,1,1,0
831068000,831068000,1036000,41.606704,-86.3556021,-0.4484546,-1.1173443,0.12981808,0.0004888793,0.00011499188,0.0,0.0028744414,-0.0058403583,-0.000182091,-0.0008117955,-0.00022161186,-0.012446839,-0.016992074,0.032101333,-0.04151785,-0.0011064743,-1.1101626,-0.0131517695,229.40579,0.10025808,0.055913195,0.059925277,0.019422086,0.014064339,inf,inf,inf,inf,1,1,1,1,2,0,2,1,4,0,1,1,1,0
831076000,831076000,1036000,41.606704,-86.3556021,-0.4484444,-1.1173773,0.12981413,0.0004888793,0.00011499188,0.0,0.0031969433,-0.006247903,-0.00036297546,-0.0009857335,-0.00022161186,-0.012446839,-0.016992074,0.026193898,-0.039856963,-0.025061952,-1.1101356,-0.0131517695,229.40579,0.100276396,0.055917908,0.059918843,0.019893704,0.014418819,inf,inf,inf,inf,1,1,1,1,2,0,2,1,4,0,1,1,1,0
831084000,831084000,1036000,41.606704,-86.3556021,-0.44843307,-1.1174127,0.1298107,0.0004888793,0.00011499188,0.0,0.0032973173,-0.006524618,0.00033891437,-0.00027680083,-0.00022161186,-0.012446839,-0.016992074,0.025380043,-0.05369965,0.20334676,-1.1101668,-0.0131517695,229.40579,0.10028799,0.05592308,0.05992142,0.020358102,0.01476817,inf,inf,inf,inf,1,1,1,1,2,0,2,1,4,0,1,1,1,0
831092000,831092000,1036000,41.606704,-86.3556021,-0.44842142,-1.1174505,0.12981604,0.0004888793,0.00011499188,0.0,0.003363673,-0.0066223065,0.00037404927,-0.00023453162,-0.00022161186,-0.012446839,-0.016992074,0.031622227,0.030105498,-0.2247524,-1.1101732,-0.0131517695,229.40579,0.10028978,0.055928726,0.05992424,0.020815274,0.015112747,inf,inf,inf,inf,1,1,1,1,2,0,2,1,4,0,1,1,1,0
831100000,831100000,1036000,41.606704,-86.3556021,-0.44841,-1.1174763,0.12980312,0.0004888793,0.00011499188,0.0,0.004032447,-0.0061927964,-0.0014525683,-0.0020656686,-0.00022161186,-0.012446839,-0.016992074,0.09970505,0.035152752,-0.094948396,-1.1101888,-0.0131517695,229.40579,0.100126356,0.05589524,0.059907146,0.0014142136,0.001,inf,inf,inf,inf,1,1,1,1,2,0,2,1,4,0,1,1,1,0
831108000,831108000,1036000,41.606704,-86.3556021,-0.44839504,-1.1174982,0.129784,0.0004888793,0.00011499188,0.0,0.0042179804,-0.005725607,-0.0016661953,-0.0022834353,-0.00022161186,-0.012446839,-0.016992074,0.012759103,0.04268692,-0.023542034,-1.1101937,-0.0131517695,229.40579,0.10014658,0.055895265,0.05990716,0.0042137043,0.002983439,inf,inf,inf,inf,1,1,1,1,2,0,2,1,4,0,1,1,1,0
831116000,831116000,1036000,41.606704,-86.3556021,-0.44838086,-1.117518,0.12976371,0.0004888793,0.00011499188,0.0,0.0039382894,-0.005842318,-0.0017112728,-0.0023322823,-0.00022161186,-0.012446839,-0.016992074,-0.036346707,-0.04225818,0.009100821,-1.1101917,-0.0131517695,229.40579,0.10016139,0.055895302,0.05990718,0.0057998877,0.004111162,inf,inf,inf,inf,1,1,1,1,2,0,2,1,4,0,1,1,1,0
831124000,831124000,1036000,41.606704,-86.3556021,-0.44836995,-1.1175385,0.12974317,0.0004888793,0.00011499188,0.0,0.0035330933,-0.0059171915,-0.0017116317,-0.0023360502,-0.00022161186,-0.012446839,-0.016992074,-0.03364024,-0.018110093,0.017989362,-1.1101788,-0.0131517695,229.40579,0.10017015,0.055895366,0.059907213,0.0070455186,0.0050002243,inf,inf,inf,inf,1,1,1,1,2,0,2,1,4,0,1,1,1,0
831132000,831132000,1036000,41.606704,-86.3556021,-0.44836214,-1.1175596,0.12972514,0.0004888793,0.00011499188,0.0,0.0031861884,-0.006131281,-0.0014302116,-0.0020564587,-0.00022161186,-0.012446839,-0.016992074,-0.033547528,-0.038628552,0.041524816,-1.1101643,-0.0131517695,229.40579,0.100216106,0.05589547,0.059898496,0.00810951,0.005762176,inf,inf,inf,inf,1,1,1,1,2,0,2,1,4,0,1,1,1,0
831140000,831140000,1036000,41.606704,-86.3556021,-0.44835693,-1.1175809,0.12971507,0.0004888793,0.00011499188,0.0,0.0029495198,-0.006013981,0.00022053425,-0.00040724245,-0.00022161186,-0.012446839,-0.016992074,-0.016075484,0.024615912,0.19739561,-1.1101786,-0.0131517695,229.40579,0.10021572,0.05589564,0.05989858,0.009056052,0.006442278,inf,inf,inf,inf,1,1,1,1,2,0,2,1,4,0,1,1,1,0
831148000,831148000,1036000,41.606704,-86.3556021,-0.44835198,-1.1175988,0.12970231,0.0004888793,0.00011499188,0.0,0.0031951023,-0.0054148994,-0.0020749408,-0.0027039559,-0.00022161186,-0.012446839,-0.016992074,0.053379465,0.07771867,-0.29435664,-1.1101844,-0.0131517695,229.40579,0.10021885,0.05589589,0.059898708,0.009918779,0.0070642103,inf,inf,inf,inf,1,1,1,1,2,0,2,1,4,0,1,1,1,0
831156000,831156000,1036000,41.606704,-86.3556021,-0.44834447,-1.1176094,0.1296807,0.0004888793,0.00011499188,0.0,0.003564071,-0.0043606814,-0.0016861828,-0.0023161522,-0.00022161186,-0.012446839,-0.016992074,0.051990014,0.116791755,0.11594027,-1.1101928,-0.0131517695,229.40579,0.1002309,0.05589624,0.059898887,0.010718236,0.0076421876,inf,inf,inf,inf,1,1,1,1,2,0,2,1,4,0,1,1,1,0
831164000,831164000,1036000,41.606704,-86.3556021,-0.4483361,-1.1176139,0.12966377,0.0004888793,0.00011499188,0.0,0.003389969,-0.004097346,-0.0013351274,-0.0019657747,-0.00022161186,-0.012446839,-0.016992074,-0.027846526,-0.0043674894,0.003939431,-1.1101859,-0.0131517695,229.40579,0.10024032,0.05589671,0.05989912,0.011467042,0.008185526,inf,inf,inf,inf,1,1,1,1,2,0,2,1,4,0,1,1,1,0
831172000,831172000,1036000,41.606704,-86.3556021,-0.44832954,-1.117617,0.12964801,0.0004888793,0.00011499188,0.0,0.0032119032,-0.003907735,-0.0010848391,-0.0017158954,-0.00022161186,-0.012446839,-0.016992074,-0.007852961,0.031755824,0.057496995,-1.1101855,-0.0131517695,229.40579,0.10025148,0.05589732,0.059899427,0.012175312,0.008700718,inf,inf,inf,inf,1,1,1,1,2,0,2,1,4,0,1,1,1,0
831180000,831180000,1036000,41.606704,-86.3556021,-0.44832516,-1.117618,0.12963332,0.0004888793,0.00011499188,0.0,0.002859641,-0.0038098148,-0.0012384782,-0.0018696645,-0.00022161186,-0.012446839,-0.016992074,-0.0328861,-0.0111015495,-0.03336469,-1.1101683,-0.0131517695,229.40579,0.10025467,0.05589809,0.059899807,0.0128506115,0.0091925,inf,inf,inf,inf,1,1,1,1,2,0,2,1,4,0,1,1,1,0
831188000,831188000,1036000,41.606704,-86.3556021,-0.44832087,-1.1176181,0.12961723,0.0004888793,0.00011499188,0.0,0.0032584402,-0.0037708078,-0.00132424,-0.0019552684,-0.00022161186,-0.012446839,-0.016992074,0.0711855,-0.012130389,0.0008576848,-1.1101664,-0.0131517695,229.40579,0.1002516,0.055899035,0.05990028,0.013495981,0.009664442,inf,inf,inf,inf,1,1,1,1,2,0,2,1,4,0,1,1,1,0
831196000,831196000,1036000,41.606704,-86.3556021,-0.44831306,-1.1176199,0.12960014,0.0004888793,0.00011499188,0.0,0.003732748,-0.0042999755,-0.001525037,-0.0021555375,-0.00022161186,-0.012446839,-0.016992074,0.076171,-0.08356288,-0.017357122,-1.1102253,-0.0131517695,229.40579,0.10025182,0.055900183,0.059892073,0.014116273,0.010119318,inf,inf,inf,inf,1,1,1,1,2,0,2,1,4,0,1,1,1,0
831204000,831204000,1036000,41.606704,-86.3556021,-0.44830185,-1.1176255,0.12958866,0.0004888793,0.00011499188,0.0,0.0040005473,-0.004796599,0.00011401014,-0.0005156929,-0.00022161186,-0.012446839,-0.016992074,0.024852652,-0.07535604,0.22191827,-1.1102569,-0.0131517695,229.40579,0.100243926,0.055901546,0.05989275,0.014714734,0.010559336,inf,inf,inf,inf,1,1,1,1,2,0,2,1,4,0,1,1,1,0
831212000,831212000,1036000,41.606704,-86.3556021,-0.44828865,-1.1176339,0.12957442,0.0004888793,0.00011499188,0.0,0.0043049064,-0.0049305568,-0.0025147905,-0.0031434344,-0.00022161186,-0.012446839,-0.016992074,0.044834204,0.0052004014,-0.38454965,-1.1103122,-0.0131517695,229.40579,0.10024044,0.05590315,0.059893545,0.015293771,0.0109862825,inf,inf,inf,inf,1,1,1,1,2,0,2,1,4,0,1,1,1,0
831220000,831220000,1036000,41.606704,-86.3556021,-0.44827312,-1.117641,0.1295467,0.0004888793,0.00011499188,0.0,0.004604931,-0.004696244,-0.0027253928,-0.0033527226,-0.00022161186,-0.012446839,-0.016992074,0.051732376,0.009592479,0.05143595,-1.1103276,-0.0131517695,229.40579,0.10025862,0.055905018,0.05989447,0.015854636,0.011401627,inf,inf,inf,inf,1,1,1,1,2,0,2,1,4,0,1,1,1,0
831228000,831228000,1036000,41.606704,-86.3556021,-0.44825605,-1.1176474,0.12952001,0.0004888793,0.00011499188,0.0,0.0046060886,-0.004780646,-0.0026606026,-0.0032863708,-0.00022161186,-0.012446839,-0.016992074,-0.0039535025,-0.022079784,-0.013057205,-1.1103123,-0.0131517695,229.40579,0.100273654,0.055907164,0.059895534,0.016403208,0.011806598,inf,inf,inf,inf,1,1,1,1,2,0,2,1,4,0,1,1,1,0
831236000,831236000,1036000,41.606704,-86.3556021,-0.44823948,-1.1176535,0.12949365,0.0004888793,0.00011499188,0.0,0.0044794185,-0.0046530897,-0.002471184,-0.0030951498,-0.00022161186,-0.012446839,-0.016992074,-0.017300688,0.013224396,0.05223782,-1.1102976,-0.0131517695,229.40579,0.10028118,0.05590961,0.059896745,0.01693588,0.012202228,inf,inf,inf,inf,1,1,1,1,2,0,2,1,4,0,1,1,1,0
831244000,831244000,1036000,41.606704,-86.3556021,-0.44822347,-1.1176596,0.12947,0.0004888793,0.00011499188,0.0,0.0045891935,-0.004840012,-0.0021464156,-0.0027683454,-0.00022161186,-0.012446839,-0.016992074,0.048131365,-0.035488166,0.031319384,-1.1103204,-0.0131517695,229.40579,0.10028942,0.055912383,0.05989812,0.017456029,0.012589387,inf,inf,inf,inf,1,1,1,1,2,0,2,1,4,0,1,1,1,0
831252000,831252000,1036000,41.606704,-86.3556021,-0.44820476,-1.1176676,0.12945043,0.0004888793,0.00011499188,0.0,0.004912563,-0.005225371,-0.0012961647,-0.0019147006,-0.00022161186,-0.012446839,-0.016992074,0.019737322,-0.06995435,0.21241225,-1.1103442,-0.0131517695,229.40579,0.10033174,0.055915505,0.059890896,0.017964812,0.012968837,inf,inf,inf,inf,1,1,1,1,2,0,2,1,4,0,1,1,1,0
831260000,831260000,1036000,41.606704,-86.3556021,-0.44818503,-1.1176789,0.12943983,0.0004888793,0.00011499188,0.0,0.005056861,-0.005616062,-0.0012410583,-0.0018560205,-0.00022161186,-0.012446839,-0.016992074,0.056755118,-0.050013352,-0.21797982,-1.1103177,-0.0131517695,229.40579,0.10033056,0.055918988,0.05989263,0.018463463,0.01334124,inf,inf,inf,inf,1,1,1,1,2,0,2,1,4,0,1,1,1,0
831268000,831268000,1036000,41.606704,-86.3556021,-0.4481617,-1.1176915,0.12941644,0.0004888793,0.00011499188,0.0,0.005659154,-0.0054895296,-0.0031010373,-0.0037122513,-0.00022161186,-0.012446839,-0.016992074,0.084733866,0.032525104,-0.10352308,-1.1103355,-0.0131517695,229.40579,0.10034165,0.055922866,0.059894554,0.018952439,0.013707171,inf,inf,inf,inf,1,1,1,1,2,0,2,1,4,0,1,1,1,0
831276000,831276000,1036000,41.606704,-86.3556021,-0.44813344,-1.1177025,0.1293893,0.0004888793,0.00011499188,0.0,0.0061181923,-0.005411963,-0.0025861782,-0.003193475,-0.00022161186,-0.012446839,-0.016992074,0.03079909,-0.017541261,0.09503581,-1.1103439,-0.0131517695,229.40579,0.1003557,0.05592715,0.059896685,0.019432642,0.01406713,inf,inf,inf,inf,1,1,1,1,2,0,2,1,4,0,1,1,1,0
831284000,831284000,1036000,41.606704,-86.3556021,-0.4481043,-1.1177142,0.12936641,0.0004888793,0.00011499188,0.0,0.0060064523,-0.005576677,-0.0022994024,-0.0029026188,-0.00022161186,-0.012446839,-0.016992074,0.00063966715,-0.024108253,0.008481491,-1.1103525,-0.0131517695,229.40579,0.100371644,0.05593187,0.059899036,0.019902878,0.014421566,inf,inf,inf,inf,1,1,1,1,2,0,2,1,4,0,1,1,1,0
831292000,831292000,1036000,41.606704,-86.3556021,-0.4480751,-1.1177256,0.12934397,0.0004888793,0.00011499188,0.0,0.0060415803,-0.005408606,-0.0023196694,-0.002918647,-0.00022161186,-0.012446839,-0.016992074,0.0067454004,0.016199846,0.014154177,-1.1103283,-0.0131517695,229.40579,0.100383535,0.055937048,0.059901617,0.020369519,0.014770881,inf,inf,inf,inf,1,1,1,1,2,0,2,1,4,0,1,1,1,0
831300000,831300000,1036000,41.606704,-86.3556021,-0.44804487,-1.1177366,0.12932208,0.0004888793,0.00011499188,0.0,0.006245816,-0.0054525733,-0.0022558284,-0.0028504138,-0.00022161186,-0.012446839,-0.016992074,0.034983642,-0.0095456345,0.010224927,-1.110325,-0.0131517695,229.40579,0.10038391,0.055942703,0.05990444,0.02082674,0.015115431,inf,inf,inf,inf,1,1,1,1,2,0,2,1,4,0,1,1,1,0
831308000,831308000,1036000,41.606704,-86.3556021,-0.44802496,-1.117744,0.1293104,0.0004888793,0.00011499188,0.0,0.0058315382,-0.005456167,-0.00180013,-0.002373378,-0.00022161186,-0.012446839,-0.016992074,-0.045741398,-0.012970357,0.06290798,-1.1103048,-0.0131517695,229.40579,0.10064167,0.055909142,0.05988732,0.0014142136,0.001,inf,inf,inf,inf,1,1,1,1,2,0,2,1,4,0,1,1,1,0
831316000,831316000,1036000,41.606704,-86.3556021,-0.44800833,-1.1177498,0.12930448,0.0004888793,0.00011499188,0.0,0.005572528,-0.0050744973,-0.0007304738,-0.0012825548,-0.00022161186,-0.012446839,-0.016992074,-0.013842013,0.039581068,0.20429857,-1.1102835,-0.0131517695,229.40579,0.100651994,0.055909168,0.05987857,0.0042136977,0.0029834385,inf,inf,inf,inf,1,1,1,1,2,0,2,1,4,0,1,1,1,0
831324000,831324000,1036000,41.606704,-86.3556021,-0.44799423,-1.1177553,0.12930799,0.0004888793,0.00011499188,0.0,0.0053026574,-0.00550855,-0.00080442603,-0.0013356265,-0.00022161186,-0.012446839,-0.016992074,-0.009066852,-0.079743214,-0.2423907,-1.1102573,-0.0131517695,229.40579,0.10065189,0.055909205,0.059878588,0.0057992283,0.004111162,inf,inf,inf,inf,1,1,1,1,2,0,2,1,4,0,1,1,1,0
831332000,831332000,1036000,41.606704,-86.3556021,-0.44798145,-1.1177622,0.12929903,0.0004888793,0.00011499188,0.0,0.005368322,-0.005322614,-0.002550052,-0.0030606566,-0.00022161186,-0.012446839,-0.016992074,0.04366344,0.03347252,-0.08880912,-1.1102374,-0.0131517695,229.40579,0.10066934,0.05590927,0.05987862,0.007044546,0.005000225,inf,inf,inf,inf,1,1,1,1,2,0,2,1,4,0,1,1,1,0
831340000,831340000,1036000,41.606704,-86.3556021,-0.44796735,-1.1177664,0.12928705,0.0004888793,0.00011499188,0.0,0.0055594295,-0.004928503,-0.0021408629,-0.0026311541,-0.00022161186,-0.012446839,-0.016992074,0.022591537,0.034992587,0.061956163,-1.1102233,-0.0131517695,229.40579,0.10069387,0.055909373,0.059878677,0.0081083495,0.005762177,inf,inf,inf,inf,1,1,1,1,2,0,2,1,4,0,1,1,1,0
831348000,831348000,1036000,41.606704,-86.3556021,-0.4479535,-1.1177673,0.12927966,0.0004888793,0.00011499188,0.0,0.0054219337,-0.0046557626,-0.0017036728,-0.0021739313,-0.00022161186,-0.012446839,-0.016992074,-0.0060479837,0.0050591715,0.031214144,-1.1102402,-0.0131517695,229.40579,0.10070701,0.055909544,0.059878763,0.009055561,0.006442282,inf,inf,inf,inf,1,1,1,1,2,0,2,1,4,0,1,1,1,0
831356000,831356000,1036000,41.606704,-86.3556021,-0.4479413,-1.1177686,0.12927507,0.0004888793,0.00011499188,0.0,0.005249606,-0.0048667314,-0.0015315101,-0.0019820142,-0.00022161186,-0.012446839,-0.016992074,-0.002828203,-0.01385212,0.010476384,-1.1102145,-0.0131517695,229.40579,0.100712344,0.055909794,0.05987889,0.009918069,0.007064217,inf,inf,inf,inf,1,1,1,1,2,0,2,1,4,0,1,1,1,0
831364000,831364000,1036000,41.606704,-86.3556021,-0.44793096,-1.1177692,0.1292717,0.0004888793,0.00011499188,0.0,0.005030049,-0.0045883264,-0.0014987773,-0.0019298025,-0.00022161186,-0.012446839,-0.016992074,-0.0055928547,0.023669278,0.0016651414,-1.1102097,-0.0131517695,229.40579,0.10072009,0.055910144,0.05987907,0.010717172,0.0076421923,inf,inf,inf,inf,1,1,1,1,2,0,2,1,4,0,1,1,1,0
831372000,831372000,1036000,41.606704,-86.3556021,-0.44792107,-1.1177684,0.12927718,0.0004888793,0.00011499188,0.0,0.0051397146,-0.0045976713,0.00067026215,0.0002582589,-0.00022161186,-0.012446839,-0.016992074,0.019832788,-0.033973884,0.2891942,-1.1102238,-0.0131517695,229.40579,0.10071467,0.055910617,0.059870545,0.01146626,0.008185531,inf,inf,inf,inf,1,1,1,1,2,0,2,1,4,0,1,1,1,0
831380000,831380000,1036000,41.606704,-86.3556021,-0.44791114,-1.1177698,0.12928516,0.0004888793,0.00011499188,0.0,0.0051940535,-0.0050450712,-0.001385759,-0.0017790052,-0.00022161186,-0.012446839,-0.016992074,0.041617252,-0.053852297,-0.33131805,-1.1101977,-0.0131517695,229.40579,0.100713074,0.055911224,0.059870847,0.012174439,0.008700724,inf,inf,inf,inf,1,1,1,1,2,0,2,1,4,0,1,1,1,0
831388000,831388000,1036000,41.606704,-86.3556021,-0.4478991,-1.1177728,0.12928268,0.0004888793,0.00011499188,0.0,0.0056247683,-0.0050275996,-0.0015338683,-0.0019086435,-0.00022161186,-0.012446839,-0.016992074,0.06490686,-0.00470075,0.04225311,-1.1101841,-0.0131517695,229.40579,0.10072398,0.05591199,0.05987123,0.012848311,0.009192499,inf,inf,inf,inf,1,1,1,1,2,0,2,1,4,0,1,1,1,0
831396000,831396000,1036000,41.606704,-86.3556021,-0.44788498,-1.1177762,0.12928379,0.0004888793,0.00011499188,0.0,0.005720358,-0.0051967567,-0.0009756092,-0.00133222,-0.00022161186,-0.012446839,-0.016992074,0.012976435,-0.037166048,0.044826355,-1.1101686,-0.0131517695,229.40579,0.100737005,0.05591294,0.0598717,0.013492801,0.009664439,inf,inf,inf,inf,1,1,1,1,2,0,2,1,4,0,1,1,1,0
831404000,831404000,1036000,41.606704,-86.3556021,-0.44787222,-1.1177802,0.1292881,0.0004888793,0.00011499188,0.0,0.0053344257,-0.005134905,-0.0007808795,-0.00111963,-0.00022161186,-0.012446839,-0.016992074,-0.041576825,0.0061953496,0.01064216,-1.1101762,-0.0131517695,229.40579,0.10075036,0.055914085,0.05987227,0.014113061,0.010119313,inf,inf,inf,inf,1,1,1,1,2,0,2,1,4,0,1,1,1,0
831412000,831412000,1036000,41.606704,-86.3556021,-0.44786105,-1.117785,0.12929262,0.0004888793,0.00011499188,0.0,0.005366687,-0.0053391205,-0.0010449175,-0.001366083,-0.00022161186,-0.012446839,-0.016992074,0.02906931,-0.040437557,-0.042548463,-1.1101575,-0.0131517695,229.40579,0.100756094,0.05587179,0.059872944,0.014703861,0.010556429,inf,inf,inf,inf,1,1,1,1,2,0,2,1,4,0,1,1,1,0
831420000,831420000,1036000,41.606704,-86.3556021,-0.4478502,-1.1177926,0.12929608,0.0004888793,0.00011499188,0.0,0.0051403297,-0.005854624,-0.0011505324,-0.0014544108,-0.00022161186,-0.012446839,-0.016992074,-0.03220587,-0.090048835,-0.02122956,-1.1101148,-0.0131517695,229.40579,0.10075693,0.05587339,0.059873737,0.015283072,0.010983461,inf,inf,inf,inf,1,1,1,1,2,0,2,1,4,0,1,1,1,0
831428000,831428000,1036000,41.606704,-86.3556021,-0.4478413,-1.1178055,0.12929867,0.0004888793,0.00011499188,0.0,0.0050119106,-0.0064934613,-0.0012735784,-0.0015604646,-0.00022161186,-0.012446839,-0.016992074,0.010704656,-0.066146925,-0.001302052,-1.110095,-0.0131517695,229.40579,0.10076158,0.055875253,0.05987466,0.015845113,0.011398879,inf,inf,inf,inf,1,1,1,1,2,0,2,1,4,0,1,1,1,0
831436000,831436000,1036000,41.606704,-86.3556021,-0.4478328,-1.1178211,0.12930885,0.0004888793,0.00011499188,0.0,0.0049559893,-0.0066526155,0.0006051783,0.00033490782,-0.00022161186,-0.012446839,-0.016992074,-0.00017975067,-0.034192834,0.2327691,-1.1100821,-0.0131517695,229.40579,0.100758046,0.055877395,0.059866965,0.016392007,0.011803907,inf,inf,inf,inf,1,1,1,1,2,0,2,1,4,0,1,1,1,0
831444000,831444000,1036000,41.606704,-86.3556021,-0.44782442,-1.1178386,0.12932028,0.0004888793,0.00011499188,0.0,0.0050577745,-0.0068796217,-0.0012006309,-0.0014545706,-0.00022161186,-0.012446839,-0.016992074,0.041355666,-0.034188733,-0.26506656,-1.1100831,-0.0131517695,229.40579,0.10075633,0.055879842,0.05986818,0.016925152,0.012199587,inf,inf,inf,inf,1,1,1,1,2,0,2,1,4,0,1,1,1,0
831452000,831452000,1036000,41.606704,-86.3556021,-0.44781417,-1.1178586,0.12932573,0.0004888793,0.00011499188,0.0,0.0052854656,-0.0073154033,-0.0005825004,-0.00082039123,-0.00022161186,-0.012446839,-0.016992074,0.0255982,-0.07194382,0.13637815,-1.1100743,-0.0131517695,229.40579,0.10076903,0.05588261,0.059869554,0.01744399,0.012586797,inf,inf,inf,inf,1,1,1,1,2,0,2,1,4,0,1,1,1,0
831460000,831460000,1036000,41.606704,-86.3556021,-0.4478041,-1.1178818,0.1293385,0.0004888793,0.00011499188,0.0,0.0049921,-0.0075034834,0.0001418778,-8.024277e-05,-0.00022161186,-0.012446839,-0.016992074,-0.03723,-0.009775864,0.046269905,-1.1100439,-0.0131517695,229.40579,0.1007745,0.05588572,0.059871104,0.017954886,0.012966294,inf,inf,inf,inf,1,1,1,1,2,0,2,1,4,0,1,1,1,0
831468000,831468000,1036000,41.606704,-86.3556021,-0.44779626,-1.1179053,0.12935281,0.0004888793,0.00011499188,0.0,0.0047679874,-0.0074084327,-0.00018203433,-0.0003886601,-0.00022161186,-0.012446839,-0.016992074,-0.010891549,0.01711199,-0.059572108,-1.1100522,-0.0131517695,229.40579,0.10076922,0.055889204,0.059872832,0.018453723,0.013338744,inf,inf,inf,inf,1,1,1,1,2,0,2,1,4,0,1,1,1,0
831476000,831476000,1036000,41.606704,-86.3556021,-0.4477891,-1.1179259,0.129365,0.0004888793,0.00011499188,0.0,0.0048050634,-0.0067277905,-0.00035408873,-0.0005454916,-0.00022161186,-0.012446839,-0.016992074,0.024967067,0.09187512,-0.015875388,-1.1100571,-0.0131517695,229.40579,0.100767374,0.055893075,0.059874758,0.018942282,0.0137047125,inf,inf,inf,inf,1,1,1,1,2,0,2,1,4,0,1,1,1,0
831484000,831484000,1036000,41.606704,-86.3556021,-0.44778088,-1.1179419,0.12937926,0.0004888793,0.00011499188,0.0,0.0049345014,-0.006401349,0.0006731545,0.0004967058,-0.00022161186,-0.012446839,-0.016992074,0.02179712,0.0006926478,0.23484968,-1.1100302,-0.0131517695,229.40579,0.10076608,0.055897355,0.059876893,0.019422226,0.014064707,inf,inf,inf,inf,1,1,1,1,2,0,2,1,4,0,1,1,1,0
831492000,831492000,1036000,41.606704,-86.3556021,-0.44777226,-1.117958,0.12940273,0.0004888793,0.00011499188,0.0,0.0048924233,-0.0065529384,0.00057243946,0.0004103955,-0.00022161186,-0.012446839,-0.016992074,0.011858074,-0.020872619,-0.25420734,-1.1099887,-0.0131517695,229.40579,0.100746095,0.055902068,0.05987048,0.019894373,0.014419178,inf,inf,inf,inf,1,1,1,1,2,0,2,1,4,0,1,1,1,0
831500000,831500000,1036000,41.606704,-86.3556021,-0.4477626,-1.1179734,0.12941335,0.0004888793,0.00011499188,0.0,0.0051187966,-0.006124703,-0.0010670263,-0.0012149175,-0.00022161186,-0.012446839,-0.016992074,0.03952812,0.07231196,-0.06408716,-1.1099977,-0.0131517695,229.40579,0.10074602,0.05590724,0.059873063,0.020358726,0.014768519,inf,inf,inf,inf,1,1,1,1,2,0,2,1,4,0,1,1,1,0
831508000,831508000,1036000,41.606704,-86.3556021,-0.44775075,-1.1179858,0.1294239,0.0004888793,0.00011499188,0.0,0.00538691,-0.0059849173,-1.1676253e-05,-0.00014566346,-0.00022161186,-0.012446839,-0.016992074,0.044317663,-0.02478669,0.14586274,-1.1099837,-0.0131517695,229.40579,0.1007448,0.05591289,0.059875883,0.020815987,0.01511309,inf,inf,inf,inf,1,1,1,1,2,0,2,1,4,0,1,1,1,0
831516000,831516000,1036000,41.606704,-86.3556021,-0.44774586,-1.1179885,0.12943213,0.0004888793,0.00011499188,0.0,0.005224609,-0.006196826,0.0003880214,0.00024925306,-0.00022161186,-0.012446839,-0.016992074,-0.018192682,-0.04290844,0.029310519,-1.1099267,-0.0131517695,229.40579,0.10045861,0.055879384,0.059858773,0.0014142136,0.001,inf,inf,inf,inf,1,1,1,1,2,0,2,1,4,0,1,1,1,0
831524000,831524000,1036000,41.606704,-86.3556021,-0.4477426,-1.1179918,0.1294426,0.0004888793,0.00011499188,0.0,0.005123708,-0.0062713865,0.00080359424,0.00066026946,-0.00022161186,-0.012446839,-0.016992074,0.014006135,-0.020903412,0.07428595,-1.1099294,-0.0131517695,229.40579,0.10044074,0.055879414,0.059858788,0.0042141527,0.0029834385,inf,inf,inf,inf,1,1,1,1,2,0,2,1,4,0,1,1,1,0
831532000,831532000,1036000,41.606704,-86.3556021,-0.447741,-1.1179956,0.1294553,0.0004888793,0.00011499188,0.0,0.004767667,-0.006414413,0.00084401557,0.0006963547,-0.00022161186,-0.012446839,-0.016992074,-0.037683506,-0.04122327,-0.015066067,-1.1099575,-0.0131517695,229.40579,0.10041547,0.055879448,0.059858806,0.0057997983,0.004111163,inf,inf,inf,inf,1,1,1,1,2,0,2,1,4,0,1,1,1,0
831540000,831540000,1036000,41.606704,-86.3556021,-0.447742,-1.1179999,0.12946542,0.0004888793,0.00011499188,0.0,0.004601366,-0.006458867,0.00034791394,0.00019613325,-0.00022161186,-0.012446839,-0.016992074,0.008911654,-0.029096862,-0.05522749,-1.1099722,-0.0131517695,229.40579,0.10039772,0.05587951,0.05985884,0.007045291,0.0050002234,inf,inf,inf,inf,1,1,1,1,2,0,2,1,4,0,1,1,1,0
831548000,831548000,1036000,41.606704,-86.3556021,-0.44774365,-1.1180043,0.12947349,0.0004888793,0.00011499188,0.0,0.004528929,-0.0065213903,0.00089750165,0.0007418135,-0.00022161186,-0.012446839,-0.016992074,-0.0018605472,-0.021383919,0.19511573,-1.1099577,-0.0131517695,229.40579,0.10038321,0.055879615,0.059858896,0.008109376,0.0057621743,inf,inf,inf,inf,1,1,1,1,2,0,2,1,4,0,1,1,1,0
831556000,831556000,1036000,41.606704,-86.3556021,-0.44774732,-1.1180085,0.12949073,0.0004888793,0.00011499188,0.0,0.00422562,-0.0064453846,0.0013060782,0.0011466575,-0.00022161186,-0.012446839,-0.016992074,-0.005804933,0.0060198433,-0.17793389,-1.1099274,-0.0131517695,229.40579,0.1003561,0.055879787,0.05985023,0.009055986,0.0064422763,inf,inf,inf,inf,1,1,1,1,2,0,2,1,4,0,1,1,1,0
831564000,831564000,1036000,41.606704,-86.3556021,-0.44775185,-1.11801,0.1294968,0.0004888793,0.00011499188,0.0,0.0042715864,-0.00595562,-0.00031355582,-0.00047650415,-0.00022161186,-0.012446839,-0.016992074,0.022639811,0.04608536,-0.053579047,-1.1098971,-0.0131517695,229.40579,0.100344226,0.055880036,0.059850357,0.009918317,0.0070642093,inf,inf,inf,inf,1,1,1,1,2,0,2,1,4,0,1,1,1,0
831572000,831572000,1036000,41.606704,-86.3556021,-0.44775605,-1.1180078,0.12950021,0.0004888793,0.00011499188,0.0,0.0042685806,-0.0055392305,0.00022155627,5.5281314e-05,-0.00022161186,-0.012446839,-0.016992074,0.004940764,0.036327012,0.08140963,-1.1098897,-0.0131517695,229.40579,0.10033831,0.055880386,0.059850533,0.010717703,0.0076421853,inf,inf,inf,inf,1,1,1,1,2,0,2,1,4,0,1,1,1,0
831580000,831580000,1036000,41.606704,-86.3556021,-0.44776088,-1.1180018,0.12950678,0.0004888793,0.00011499188,0.0,0.0041766083,-0.0051684766,0.00034926194,0.0001798573,-0.00022161186,-0.012446839,-0.016992074,0.009496806,0.019039184,-0.017104734,-1.1098994,-0.0131517695,229.40579,0.100321904,0.05588086,0.05985077,0.011467805,0.008185525,inf,inf,inf,inf,1,1,1,1,2,0,2,1,4,0,1,1,1,0
831588000,831588000,1036000,41.606704,-86.3556021,-0.44776773,-1.1179953,0.12951228,0.0004888793,0.00011499188,0.0,0.003715295,-0.005466601,0.00031817815,0.00014583621,-0.00022161186,-0.012446839,-0.016992074,-0.0488085,-0.072518006,0.033304032,-1.1098971,-0.0131517695,229.40579,0.10030386,0.055881467,0.059851076,0.0121755395,0.008700718,inf,inf,inf,inf,1,1,1,1,2,0,2,1,4,0,1,1,1,0
831596000,831596000,1036000,41.606704,-86.3556021,-0.44777793,-1.1179909,0.12952532,0.0004888793,0.00011499188,0.0,0.0033287539,-0.005615375,0.0022126248,0.0020375596,-0.00022161186,-0.012446839,-0.016992074,-0.043163262,-0.014418585,0.24647258,-1.1098976,-0.0131517695,229.40579,0.100284114,0.055882234,0.059851456,0.012849456,0.009192494,inf,inf,inf,inf,1,1,1,1,2,0,2,1,4,0,1,1,1,0
831604000,831604000,1036000,41.606704,-86.3556021,-0.44779038,-1.1179857,0.12953779,0.0004888793,0.00011499188,0.0,0.00327762,-0.0054651015,2.1912154e-05,-0.000155641,-0.00022161186,-0.012446839,-0.016992074,0.03345632,-0.013062382,-0.32177943,-1.109905,-0.0131517695,229.40579,0.10026866,0.055883184,0.05985193,0.01349437,0.009664432,inf,inf,inf,inf,1,1,1,1,2,0,2,1,4,0,1,1,1,0
831612000,831612000,1036000,41.606704,-86.3556021,-0.4478018,-1.1179817,0.12954068,0.0004888793,0.00011499188,0.0,0.0034544622,-0.0058611683,-0.00012728496,-0.0003052255,-0.00022161186,-0.012446839,-0.016992074,0.0342943,-0.065674976,0.04472484,-1.1099069,-0.0131517695,229.40579,0.10032356,0.055884328,0.05984375,0.014114537,0.010119307,inf,inf,inf,inf,1,1,1,1,2,0,2,1,4,0,1,1,1,0
831620000,831620000,1036000,41.606704,-86.3556021,-0.44781104,-1.1179795,0.12954651,0.0004888793,0.00011499188,0.0,0.003917543,-0.005699251,0.0005813345,0.00040314125,-0.00022161186,-0.012446839,-0.016992074,0.08080721,0.041188877,0.087965205,-1.109907,-0.0131517695,229.40579,0.10031547,0.0558421,0.059844423,0.014704448,0.010556419,inf,inf,inf,inf,1,1,1,1,2,0,2,1,4,0,1,1,1,0
831628000,831628000,1036000,41.606704,-86.3556021,-0.4478188,-1.1179734,0.12955551,0.0004888793,0.00011499188,0.0,0.0035884797,-0.0050623873,0.0007310896,0.00055279967,-0.00022161186,-0.012446839,-0.016992074,-0.06613469,0.0645048,0.019258754,-1.109901,-0.0131517695,229.40579,0.100305125,0.055843707,0.059845217,0.015283509,0.010983446,inf,inf,inf,inf,1,1,1,1,2,0,2,1,4,0,1,1,1,0
831636000,831636000,1036000,41.606704,-86.3556021,-0.4478286,-1.1179628,0.12956558,0.0004888793,0.00011499188,0.0,0.0036741612,-0.004657942,0.00089931546,0.0007210824,-0.00022161186,-0.012446839,-0.016992074,0.06310403,0.01784372,0.009539474,-1.1099188,-0.0131517695,229.40579,0.10029797,0.05584557,0.05984614,0.015845517,0.01139886,inf,inf,inf,inf,1,1,1,1,2,0,2,1,4,0,1,1,1,0
831644000,831644000,1036000,41.606704,-86.3556021,-0.44783655,-1.1179513,0.12957516,0.0004888793,0.00011499188,0.0,0.0037612352,-0.004748713,0.00078085205,0.000602826,-0.00022161186,-0.012446839,-0.016992074,0.005946573,-0.03183197,0.0045522414,-1.1099312,-0.0131517695,229.40579,0.10028693,0.055847716,0.059847202,0.016393747,0.011803892,inf,inf,inf,inf,1,1,1,1,2,0,2,1,4,0,1,1,1,0
831652000,831652000,1036000,41.606704,-86.3556021,-0.44784388,-1.1179405,0.12958492,0.0004888793,0.00011499188,0.0,0.0038143895,-0.004822748,0.00096084335,0.00078317104,-0.00022161186,-0.012446839,-0.016992074,0.013233838,-0.017848212,0.031229977,-1.1099215,-0.0131517695,229.40579,0.100271806,0.055850163,0.059848417,0.016926466,0.012199573,inf,inf,inf,inf,1,1,1,1,2,0,2,1,4,0,1,1,1,0
831660000,831660000,1036000,41.606704,-86.3556021,-0.44785416,-1.1179302,0.12960173,0.0004888793,0.00011499188,0.0,0.0028554576,-0.0048557785,0.0025877801,0.002410605,-0.00022161186,-0.012446839,-0.016992074,-0.13838288,-0.024079956,0.2097375,-1.1099107,-0.0131517695,229.40579,0.10025273,0.05585293,0.05984979,0.017446943,0.012586783,inf,inf,inf,inf,1,1,1,1,2,0,2,1,4,0,1,1,1,0
831668000,831668000,1036000,41.606704,-86.3556021,-0.4478703,-1.117921,0.12961689,0.0004888793,0.00011499188,0.0,0.0026338038,-0.005032331,0.00039080455,0.00021426674,-0.00022161186,-0.012446839,-0.016992074,0.044927657,-0.028097697,-0.31962436,-1.1099069,-0.0131517695,229.40579,0.10023609,0.05585605,0.05985134,0.017956102,0.012966277,inf,inf,inf,inf,1,1,1,1,2,0,2,1,4,0,1,1,1,0
831676000,831676000,1036000,41.606704,-86.3556021,-0.44788375,-1.1179125,0.12962106,0.0004888793,0.00011499188,0.0,0.0031297614,-0.0050594923,0.0003197719,0.00014389961,-0.00022161186,-0.012446839,-0.016992074,0.053054325,-0.02248471,0.048144657,-1.1099007,-0.0131517695,229.40579,0.100234926,0.05585953,0.059844323,0.018453084,0.013338719,inf,inf,inf,inf,1,1,1,1,2,0,2,1,4,0,1,1,1,0
831684000,831684000,1036000,41.606704,-86.3556021,-0.4478948,-1.1179054,0.12962608,0.0004888793,0.00011499188,0.0,0.003165448,-0.005240468,0.00033962622,0.00016455691,-0.00022161186,-0.012446839,-0.016992074,-0.0002971285,-0.026390214,-0.01813012,-1.1099,-0.0131517695,229.40579,0.10023551,0.055863403,0.059846252,0.01894401,0.0137046855,inf,inf,inf,inf,1,1,1,1,2,0,2,1,4,0,1,1,1,0
831692000,831692000,1036000,41.606704,-86.3556021,-0.44790724,-1.117899,0.1296298,0.0004888793,0.00011499188,0.0,0.0027540517,-0.005182083,0.00018562391,1.1491251e-05,-0.00022161186,-0.012446839,-0.016992074,-0.04226081,0.003541902,0.0013876073,-1.1099141,-0.0131517695,229.40579,0.100228384,0.055867687,0.059848383,0.019424258,0.014064679,inf,inf,inf,inf,1,1,1,1,2,0,2,1,4,0,1,1,1,0
831700000,831700000,1036000,41.606704,-86.3556021,-0.44792172,-1.1178914,0.1296334,0.0004888793,0.00011499188,0.0,0.0026530821,-0.0050101704,0.00019991233,2.6847269e-05,-0.00022161186,-0.012446839,-0.016992074,0.021231782,-0.00034953165,-0.0114693,-1.109929,-0.0131517695,229.40579,0.10022405,0.055872403,0.059850734,0.019895447,0.014419152,inf,inf,inf,inf,1,1,1,1,2,0,2,1,4,0,1,1,1,0
831708000,831708000,1036000,41.606704,-86.3556021,-0.44793603,-1.1178843,0.12963665,0.0004888793,0.00011499188,0.0,0.0024499325,-0.0052079684,0.0006331889,0.00046131905,-0.00022161186,-0.012446839,-0.016992074,-0.055153757,-0.0492813,0.16782984,-1.1099644,-0.0131517695,229.40579,0.10022384,0.055877578,0.059853315,0.02035947,0.014768499,inf,inf,inf,inf,1,1,1,1,2,0,2,1,4,0,1,1,1,0
831716000,831716000,1036000,41.606704,-86.3556021,-0.4479533,-1.117881,0.12964724,0.0004888793,0.00011499188,0.0,0.002133304,-0.0058269924,0.0007322272,0.00056167715,-0.00022161186,-0.012446839,-0.016992074,0.01566462,-0.08740843,-0.20732084,-1.1099691,-0.0131517695,229.40579,0.10021789,0.055883233,0.05985614,0.020816347,0.015113074,inf,inf,inf,inf,1,1,1,1,2,0,2,1,4,0,1,1,1,0
831724000,831724000,1036000,41.606704,-86.3556021,-0.44797507,-1.11788,0.12964238,0.0004888793,0.00011499188,0.0,0.0021343313,-0.006174464,-0.0014036921,-0.001576655,-0.00022161186,-0.012446839,-0.016992074,-0.005764239,-0.04674641,-0.14953972,-1.1099482,-0.0131517695,229.40579,0.100166515,0.0558497,0.059839018,0.0014142136,0.001,inf,inf,inf,inf,1,1,1,1,2,0,2,1,4,0,1,1,1,0
831732000,831732000,1036000,41.606704,-86.3556021,-0.44799668,-1.1178807,0.12963024,0.0004888793,0.00011499188,0.0,0.0022361758,-0.0061950576,-0.0012476328,-0.0014231484,-0.00022161186,-0.012446839,-0.016992074,0.03534648,-0.0005759701,0.06362882,-1.1099392,-0.0131517695,229.40579,0.10016844,0.05584973,0.05983029,0.0042137043,0.0029834383,inf,inf,inf,inf,1,1,1,1,2,0,2,1,4,0,1,1,1,0
831740000,831740000,1036000,41.606704,-86.3556021,-0.4480176,-1.1178814,0.12962036,0.0004888793,0.00011499188,0.0,0.0022147521,-0.0062296963,-0.00101931,-0.0011971549,-0.00022161186,-0.012446839,-0.016992074,0.0063652014,-0.030344214,0.018526735,-1.1099136,-0.0131517695,229.40579,0.10018672,0.055849764,0.059830308,0.0057989033,0.004111162,inf,inf,inf,inf,1,1,1,1,2,0,2,1,4,0,1,1,1,0
831748000,831748000,1036000,41.606704,-86.3556021,-0.44803914,-1.117883,0.12961112,0.0004888793,0.00011499188,0.0,0.0020607193,-0.0062803864,-0.0010349883,-0.001214944,-0.00022161186,-0.012446839,-0.016992074,0.0014874336,-0.01995456,-0.008827138,-1.1099461,-0.0131517695,229.40579,0.10020237,0.055849828,0.05983034,0.0070451805,0.0050002234,inf,inf,inf,inf,1,1,1,1,2,0,2,1,4,0,1,1,1,0
831756000,831756000,1036000,41.606704,-86.3556021,-0.44806048,-1.1178856,0.12960108,0.0004888793,0.00011499188,0.0,0.0022062284,-0.006358612,-0.0011295296,-0.0013113826,-0.00022161186,-0.012446839,-0.016992074,0.03597721,-0.009265705,-0.0012117138,-1.1099316,-0.0131517695,229.40579,0.100210026,0.055849936,0.059830397,0.008109106,0.0057621733,inf,inf,inf,inf,1,1,1,1,2,0,2,1,4,0,1,1,1,0
831764000,831764000,1036000,41.606704,-86.3556021,-0.44808015,-1.1178874,0.12959021,0.0004888793,0.00011499188,0.0,0.0023614112,-0.0060381135,-0.0012813484,-0.0014648905,-0.00022161186,-0.012446839,-0.016992074,0.024064884,0.038759824,-0.025415855,-1.1099484,-0.0131517695,229.40579,0.100218564,0.055850103,0.059830483,0.009055587,0.0064422744,inf,inf,inf,inf,1,1,1,1,2,0,2,1,4,0,1,1,1,0
